onset	duration	stim_filename	verbal_resp	key_resp	event_type
2.023	0	L205	2	2	STIM_LOGO
3.023	5	L205	2	2	RETENTION_LOGO
8.023	0	L205	NaN	NaN	VERBALRESP_LOGO
11.915	0	L205	NaN	NaN	KEYRESP_LOGO
15.04	0	L2	2	2	STIM_LOGO
16.04	5	L2	2	2	RETENTION_LOGO
21.04	0	L2	NaN	NaN	VERBALRESP_LOGO
24.924	0	L2	NaN	NaN	KEYRESP_LOGO
33.04	0	L219	1	2	STIM_LOGO
34.04	5	L219	1	2	RETENTION_LOGO
39.04	0	L219	NaN	NaN	VERBALRESP_LOGO
42.87	0	L219	NaN	NaN	KEYRESP_LOGO
51.04	0	L139	1	2	STIM_LOGO
52.04	5	L139	1	2	RETENTION_LOGO
57.04	0	L139	NaN	NaN	VERBALRESP_LOGO
61.143	0	L139	NaN	NaN	KEYRESP_LOGO
63.04	0	L407	0	1	STIM_LOGO
64.04	5	L407	0	1	RETENTION_LOGO
69.04	0	L407	NaN	NaN	VERBALRESP_LOGO
72.998	0	L407	NaN	NaN	KEYRESP_LOGO
80.04	0	L305	1	2	STIM_LOGO
81.04	5	L305	1	2	RETENTION_LOGO
86.04	0	L305	NaN	NaN	VERBALRESP_LOGO
89.949	0	L305	NaN	NaN	KEYRESP_LOGO
92.04	0	L208	0	1	STIM_LOGO
93.04	5	L208	0	1	RETENTION_LOGO
98.04	0	L208	NaN	NaN	VERBALRESP_LOGO
102.276	0	L208	NaN	NaN	KEYRESP_LOGO
108.04	0	L221	2	2	STIM_LOGO
109.04	5	L221	2	2	RETENTION_LOGO
114.041	0	L221	NaN	NaN	VERBALRESP_LOGO
118.111	0	L221	NaN	NaN	KEYRESP_LOGO
121.04	0	L267	1	2	STIM_LOGO
122.041	5	L267	1	2	RETENTION_LOGO
127.041	0	L267	NaN	NaN	VERBALRESP_LOGO
130.976	0	L267	NaN	NaN	KEYRESP_LOGO
136.041	0	L144	1	2	STIM_LOGO
137.041	5	L144	1	2	RETENTION_LOGO
142.041	0	L144	NaN	NaN	VERBALRESP_LOGO
146.228	0	L144	NaN	NaN	KEYRESP_LOGO
154.041	0	L151	3	0	STIM_LOGO
155.041	5	L151	3	0	RETENTION_LOGO
160.041	0	L151	NaN	NaN	VERBALRESP_LOGO
168.074	0	L103	0	1	STIM_LOGO
169.074	5	L103	0	1	RETENTION_LOGO
174.074	0	L103	NaN	NaN	VERBALRESP_LOGO
177.601	0	L103	NaN	NaN	KEYRESP_LOGO
183.091	0	L57	0	0	STIM_LOGO
184.091	5	L57	0	0	RETENTION_LOGO
189.091	0	L57	NaN	NaN	VERBALRESP_LOGO
200.125	0	L45	1	2	STIM_LOGO
201.125	5	L45	1	2	RETENTION_LOGO
206.125	0	L45	NaN	NaN	VERBALRESP_LOGO
210.324	0	L45	NaN	NaN	KEYRESP_LOGO
213.141	0	L51	0	1	STIM_LOGO
214.141	5	L51	0	1	RETENTION_LOGO
219.141	0	L51	NaN	NaN	VERBALRESP_LOGO
222.786	0	L51	NaN	NaN	KEYRESP_LOGO
232.141	0	L16	0	2	STIM_LOGO
233.141	5	L16	0	2	RETENTION_LOGO
238.141	0	L16	NaN	NaN	VERBALRESP_LOGO
242.035	0	L16	NaN	NaN	KEYRESP_LOGO
244.141	0	L414	1	2	STIM_LOGO
245.142	5	L414	1	2	RETENTION_LOGO
250.142	0	L414	NaN	NaN	VERBALRESP_LOGO
253.9	0	L414	NaN	NaN	KEYRESP_LOGO
260.142	0	L405	0	2	STIM_LOGO
261.142	5	L405	0	2	RETENTION_LOGO
266.142	0	L405	NaN	NaN	VERBALRESP_LOGO
269.897	0	L405	NaN	NaN	KEYRESP_LOGO
279.142	0	L201	0	0	STIM_LOGO
280.142	5	L201	0	0	RETENTION_LOGO
285.142	0	L201	NaN	NaN	VERBALRESP_LOGO
293.175	0	L334	0	1	STIM_LOGO
294.175	5	L334	0	1	RETENTION_LOGO
299.175	0	L334	NaN	NaN	VERBALRESP_LOGO
302.646	0	L334	NaN	NaN	KEYRESP_LOGO
306.192	0	L100	0	1	STIM_LOGO
307.192	5	L100	0	1	RETENTION_LOGO
312.192	0	L100	NaN	NaN	VERBALRESP_LOGO
316.207	0	L100	NaN	NaN	KEYRESP_LOGO
321.192	0	L340	1	2	STIM_LOGO
322.192	5	L340	1	2	RETENTION_LOGO
327.192	0	L340	NaN	NaN	VERBALRESP_LOGO
330.768	0	L340	NaN	NaN	KEYRESP_LOGO
340.192	0	L86	1	2	STIM_LOGO
341.192	5	L86	1	2	RETENTION_LOGO
346.192	0	L86	NaN	NaN	VERBALRESP_LOGO
350.011	0	L86	NaN	NaN	KEYRESP_LOGO
352.192	0	L50	0	2	STIM_LOGO
353.192	5	L50	0	2	RETENTION_LOGO
358.192	0	L50	NaN	NaN	VERBALRESP_LOGO
362.189	0	L50	NaN	NaN	KEYRESP_LOGO
371.193	0	L41	1	2	STIM_LOGO
372.193	5	L41	1	2	RETENTION_LOGO
377.193	0	L41	NaN	NaN	VERBALRESP_LOGO
381.012	0	L41	NaN	NaN	KEYRESP_LOGO
385.193	0	L22	1	2	STIM_LOGO
386.193	5	L22	1	2	RETENTION_LOGO
391.193	0	L22	NaN	NaN	VERBALRESP_LOGO
395.02	0	L22	NaN	NaN	KEYRESP_LOGO
402.209	0	L369	1	2	STIM_LOGO
403.21	5	L369	1	2	RETENTION_LOGO
408.21	0	L369	NaN	NaN	VERBALRESP_LOGO
412.043	0	L369	NaN	NaN	KEYRESP_LOGO
414.226	0	L130	0	1	STIM_LOGO
415.226	5	L130	0	1	RETENTION_LOGO
420.226	0	L130	NaN	NaN	VERBALRESP_LOGO
424.033	0	L130	NaN	NaN	KEYRESP_LOGO
430.226	0	L4	0	2	STIM_LOGO
431.226	5	L4	0	2	RETENTION_LOGO
436.226	0	L4	NaN	NaN	VERBALRESP_LOGO
440.816	0	L4	NaN	NaN	KEYRESP_LOGO
443.227	0	L295	0	1	STIM_LOGO
444.226	5	L295	0	1	RETENTION_LOGO
449.227	0	L295	NaN	NaN	VERBALRESP_LOGO
453.078	0	L295	NaN	NaN	KEYRESP_LOGO
455.227	0	L312	1	2	STIM_LOGO
456.227	5	L312	1	2	RETENTION_LOGO
461.227	0	L312	NaN	NaN	VERBALRESP_LOGO
464.963	0	L312	NaN	NaN	KEYRESP_LOGO
471.227	0	L424	0	1	STIM_LOGO
472.227	5	L424	0	1	RETENTION_LOGO
477.227	0	L424	NaN	NaN	VERBALRESP_LOGO
480.799	0	L424	NaN	NaN	KEYRESP_LOGO
485.227	0	L25	1	2	STIM_LOGO
486.227	5	L25	1	2	RETENTION_LOGO
491.227	0	L25	NaN	NaN	VERBALRESP_LOGO
495.256	0	L25	NaN	NaN	KEYRESP_LOGO
502.227	0	L60	0	1	STIM_LOGO
503.227	5	L60	0	1	RETENTION_LOGO
508.227	0	L60	NaN	NaN	VERBALRESP_LOGO
511.988	0	L60	NaN	NaN	KEYRESP_LOGO
515.227	0	L53	1	2	STIM_LOGO
516.227	5	L53	1	2	RETENTION_LOGO
521.227	0	L53	NaN	NaN	VERBALRESP_LOGO
525.051	0	L53	NaN	NaN	KEYRESP_LOGO
528.227	0	L39	0	1	STIM_LOGO
529.227	5	L39	0	1	RETENTION_LOGO
534.227	0	L39	NaN	NaN	VERBALRESP_LOGO
537.762	0	L39	NaN	NaN	KEYRESP_LOGO
543.227	0	L380	2	2	STIM_LOGO
544.227	5	L380	2	2	RETENTION_LOGO
549.227	0	L380	NaN	NaN	VERBALRESP_LOGO
553.084	0	L380	NaN	NaN	KEYRESP_LOGO
558.227	0	L33	0	1	STIM_LOGO
559.227	5	L33	0	1	RETENTION_LOGO
564.227	0	L33	NaN	NaN	VERBALRESP_LOGO
567.95	0	L33	NaN	NaN	KEYRESP_LOGO
574.228	0	L238	0	1	STIM_LOGO
575.228	5	L238	0	1	RETENTION_LOGO
580.228	0	L238	NaN	NaN	VERBALRESP_LOGO
584.094	0	L238	NaN	NaN	KEYRESP_LOGO
586.228	0	L358	1	2	STIM_LOGO
587.228	5	L358	1	2	RETENTION_LOGO
592.228	0	L358	NaN	NaN	VERBALRESP_LOGO
596.035	0	L358	NaN	NaN	KEYRESP_LOGO
598.228	0	L135	0	1	STIM_LOGO
599.228	5	L135	0	1	RETENTION_LOGO
604.228	0	L135	NaN	NaN	VERBALRESP_LOGO
607.995	0	L135	NaN	NaN	KEYRESP_LOGO
611.228	0	L37	1	2	STIM_LOGO
612.228	5	L37	1	2	RETENTION_LOGO
617.228	0	L37	NaN	NaN	VERBALRESP_LOGO
620.949	0	L37	NaN	NaN	KEYRESP_LOGO
628.228	0	L279	1	2	STIM_LOGO
629.228	5	L279	1	2	RETENTION_LOGO
634.228	0	L279	NaN	NaN	VERBALRESP_LOGO
638.112	0	L279	NaN	NaN	KEYRESP_LOGO
642.228	0	L77	0	2	STIM_LOGO
643.228	5	L77	0	2	RETENTION_LOGO
648.228	0	L77	NaN	NaN	VERBALRESP_LOGO
652	0	L77	NaN	NaN	KEYRESP_LOGO
658.228	0	L400	1	2	STIM_LOGO
659.228	5	L400	1	2	RETENTION_LOGO
664.228	0	L400	NaN	NaN	VERBALRESP_LOGO
668.019	0	L400	NaN	NaN	KEYRESP_LOGO
676.228	0	L162	1	2	STIM_LOGO
677.228	5	L162	1	2	RETENTION_LOGO
682.228	0	L162	NaN	NaN	VERBALRESP_LOGO
686.105	0	L162	NaN	NaN	KEYRESP_LOGO
689.228	0	L339	0	1	STIM_LOGO
690.229	5	L339	0	1	RETENTION_LOGO
695.229	0	L339	NaN	NaN	VERBALRESP_LOGO
699.21	0	L339	NaN	NaN	KEYRESP_LOGO
703.229	0	L338	1	2	STIM_LOGO
704.229	5	L338	1	2	RETENTION_LOGO
709.229	0	L338	NaN	NaN	VERBALRESP_LOGO
713.102	0	L338	NaN	NaN	KEYRESP_LOGO
718.229	0	L138	1	2	STIM_LOGO
719.229	5	L138	1	2	RETENTION_LOGO
724.229	0	L138	NaN	NaN	VERBALRESP_LOGO
728.358	0	L138	NaN	NaN	KEYRESP_LOGO
735.229	0	L384	0	2	STIM_LOGO
736.229	5	L384	0	2	RETENTION_LOGO
741.229	0	L384	NaN	NaN	VERBALRESP_LOGO
745.33	0	L384	NaN	NaN	KEYRESP_LOGO
747.33	8	NaN	NaN	NaN	BREAK
756.229	0	L205	NaN	2	STIM_BRAND
757.229	5	L205	NaN	2	RETENTION_BRAND
762.853	0	L205	NaN	NaN	KEYRESP_BRAND
766.229	0	L2	NaN	2	STIM_BRAND
767.229	5	L2	NaN	2	RETENTION_BRAND
772.87	0	L2	NaN	NaN	KEYRESP_BRAND
775.729	0	L221	NaN	2	STIM_BRAND
776.729	5	L221	NaN	2	RETENTION_BRAND
782.647	0	L221	NaN	NaN	KEYRESP_BRAND
785.229	0	L50	NaN	1	STIM_BRAND
786.229	5	L50	NaN	1	RETENTION_BRAND
791.763	0	L50	NaN	NaN	KEYRESP_BRAND
795.229	0	L358	NaN	2	STIM_BRAND
796.229	5	L358	NaN	2	RETENTION_BRAND
801.74	0	L358	NaN	NaN	KEYRESP_BRAND
805.229	0	L380	NaN	1	STIM_BRAND
806.229	5	L380	NaN	1	RETENTION_BRAND
812.293	0	L380	NaN	NaN	KEYRESP_BRAND
814.729	0	L334	NaN	1	STIM_BRAND
815.73	5	L334	NaN	1	RETENTION_BRAND
821.389	0	L334	NaN	NaN	KEYRESP_BRAND
824.73	0	L53	NaN	2	STIM_BRAND
825.73	5	L53	NaN	2	RETENTION_BRAND
831.437	0	L53	NaN	NaN	KEYRESP_BRAND
834.73	0	L135	NaN	2	STIM_BRAND
835.73	5	L135	NaN	2	RETENTION_BRAND
841.808	0	L135	NaN	NaN	KEYRESP_BRAND
844.73	0	L267	NaN	1	STIM_BRAND
845.73	5	L267	NaN	1	RETENTION_BRAND
851.563	0	L267	NaN	NaN	KEYRESP_BRAND
854.23	0	L16	NaN	1	STIM_BRAND
855.23	5	L16	NaN	1	RETENTION_BRAND
861.001	0	L16	NaN	NaN	KEYRESP_BRAND
863.23	0	L407	NaN	1	STIM_BRAND
864.23	5	L407	NaN	1	RETENTION_BRAND
869.818	0	L407	NaN	NaN	KEYRESP_BRAND
872.23	0	L201	NaN	1	STIM_BRAND
873.23	5	L201	NaN	1	RETENTION_BRAND
878.977	0	L201	NaN	NaN	KEYRESP_BRAND
881.23	0	L77	NaN	2	STIM_BRAND
882.23	5	L77	NaN	2	RETENTION_BRAND
888.012	0	L77	NaN	NaN	KEYRESP_BRAND
890.23	0	L22	NaN	2	STIM_BRAND
891.23	5	L22	NaN	2	RETENTION_BRAND
897.002	0	L22	NaN	NaN	KEYRESP_BRAND
900.23	0	L51	NaN	1	STIM_BRAND
901.23	5	L51	NaN	1	RETENTION_BRAND
906.967	0	L51	NaN	NaN	KEYRESP_BRAND
910.23	0	L424	NaN	1	STIM_BRAND
911.23	5	L424	NaN	1	RETENTION_BRAND
917.01	0	L424	NaN	NaN	KEYRESP_BRAND
919.73	0	L130	NaN	1	STIM_BRAND
920.73	5	L130	NaN	1	RETENTION_BRAND
926.326	0	L130	NaN	NaN	KEYRESP_BRAND
929.731	0	L39	NaN	2	STIM_BRAND
930.73	5	L39	NaN	2	RETENTION_BRAND
936.245	0	L39	NaN	NaN	KEYRESP_BRAND
939.731	0	L138	NaN	2	STIM_BRAND
940.731	5	L138	NaN	2	RETENTION_BRAND
946.405	0	L138	NaN	NaN	KEYRESP_BRAND
949.231	0	L295	NaN	2	STIM_BRAND
950.231	5	L295	NaN	2	RETENTION_BRAND
956.819	0	L295	NaN	NaN	KEYRESP_BRAND
958.731	0	L37	NaN	2	STIM_BRAND
959.731	5	L37	NaN	2	RETENTION_BRAND
965.435	0	L37	NaN	NaN	KEYRESP_BRAND
968.231	0	L41	NaN	2	STIM_BRAND
969.231	5	L41	NaN	2	RETENTION_BRAND
974.9	0	L41	NaN	NaN	KEYRESP_BRAND
977.731	0	L144	NaN	2	STIM_BRAND
978.731	5	L144	NaN	2	RETENTION_BRAND
984.419	0	L144	NaN	NaN	KEYRESP_BRAND
987.231	0	L33	NaN	1	STIM_BRAND
988.231	5	L33	NaN	1	RETENTION_BRAND
993.94	0	L33	NaN	NaN	KEYRESP_BRAND
996.231	0	L151	NaN	2	STIM_BRAND
997.231	5	L151	NaN	2	RETENTION_BRAND
1003.598	0	L151	NaN	NaN	KEYRESP_BRAND
1005.231	0	L238	NaN	1	STIM_BRAND
1006.231	5	L238	NaN	1	RETENTION_BRAND
1011.829	0	L238	NaN	NaN	KEYRESP_BRAND
1015.231	0	L369	NaN	2	STIM_BRAND
1016.231	5	L369	NaN	2	RETENTION_BRAND
1021.988	0	L369	NaN	NaN	KEYRESP_BRAND
1025.231	0	L384	NaN	1	STIM_BRAND
1026.231	5	L384	NaN	1	RETENTION_BRAND
1031.879	0	L384	NaN	NaN	KEYRESP_BRAND
1034.231	0	L340	NaN	2	STIM_BRAND
1035.231	5	L340	NaN	2	RETENTION_BRAND
1041.146	0	L340	NaN	NaN	KEYRESP_BRAND
1043.231	0	L279	NaN	2	STIM_BRAND
1044.231	5	L279	NaN	2	RETENTION_BRAND
1050.013	0	L279	NaN	NaN	KEYRESP_BRAND
1053.231	0	L103	NaN	1	STIM_BRAND
1054.231	5	L103	NaN	1	RETENTION_BRAND
1059.837	0	L103	NaN	NaN	KEYRESP_BRAND
1063.232	0	L4	NaN	2	STIM_BRAND
1064.232	5	L4	NaN	2	RETENTION_BRAND
1070.051	0	L4	NaN	NaN	KEYRESP_BRAND
1072.232	0	L100	NaN	1	STIM_BRAND
1073.232	5	L100	NaN	1	RETENTION_BRAND
1078.908	0	L100	NaN	NaN	KEYRESP_BRAND
1081.232	0	L312	NaN	2	STIM_BRAND
1082.232	5	L312	NaN	2	RETENTION_BRAND
1088.06	0	L312	NaN	NaN	KEYRESP_BRAND
1090.732	0	L208	NaN	1	STIM_BRAND
1091.732	5	L208	NaN	1	RETENTION_BRAND
1097.562	0	L208	NaN	NaN	KEYRESP_BRAND
1099.732	0	L162	NaN	2	STIM_BRAND
1100.732	5	L162	NaN	2	RETENTION_BRAND
1106.845	0	L162	NaN	NaN	KEYRESP_BRAND
1109.232	0	L57	NaN	1	STIM_BRAND
1110.232	5	L57	NaN	1	RETENTION_BRAND
1115.966	0	L57	NaN	NaN	KEYRESP_BRAND
1118.232	0	L338	NaN	2	STIM_BRAND
1119.232	5	L338	NaN	2	RETENTION_BRAND
1125.087	0	L338	NaN	NaN	KEYRESP_BRAND
1127.232	0	L45	NaN	2	STIM_BRAND
1128.232	5	L45	NaN	2	RETENTION_BRAND
1134.141	0	L45	NaN	NaN	KEYRESP_BRAND
1136.732	0	L400	NaN	2	STIM_BRAND
1137.732	5	L400	NaN	2	RETENTION_BRAND
1143.55	0	L400	NaN	NaN	KEYRESP_BRAND
1146.232	0	L405	NaN	1	STIM_BRAND
1147.232	5	L405	NaN	1	RETENTION_BRAND
1153.033	0	L405	NaN	NaN	KEYRESP_BRAND
1156.232	0	L305	NaN	2	STIM_BRAND
1157.232	5	L305	NaN	2	RETENTION_BRAND
1163.127	0	L305	NaN	NaN	KEYRESP_BRAND
1165.232	0	L339	NaN	1	STIM_BRAND
1166.232	5	L339	NaN	1	RETENTION_BRAND
1172.017	0	L339	NaN	NaN	KEYRESP_BRAND
1174.732	0	L60	NaN	1	STIM_BRAND
1175.732	5	L60	NaN	1	RETENTION_BRAND
1181.424	0	L60	NaN	NaN	KEYRESP_BRAND
1184.232	0	L25	NaN	2	STIM_BRAND
1185.233	5	L25	NaN	2	RETENTION_BRAND
1190.965	0	L25	NaN	NaN	KEYRESP_BRAND
1194.233	0	L139	NaN	2	STIM_BRAND
1195.233	5	L139	NaN	2	RETENTION_BRAND
1201.032	0	L139	NaN	NaN	KEYRESP_BRAND
1203.233	0	L86	NaN	2	STIM_BRAND
1204.233	5	L86	NaN	2	RETENTION_BRAND
1210.274	0	L86	NaN	NaN	KEYRESP_BRAND
1213.233	0	L219	NaN	2	STIM_BRAND
1214.233	5	L219	NaN	2	RETENTION_BRAND
1220.045	0	L219	NaN	NaN	KEYRESP_BRAND
1222.133	0	L381	NaN	2	STIM_BRAND
1223.133	5	L381	NaN	2	RETENTION_BRAND
