onset	duration	stim_filename	verbal_resp	key_resp	event_type
2.332	0	L220	1	0	STIM_LOGO
3.332	5	L220	1	0	RETENTION_LOGO
8.332	0	L220	NaN	NaN	VERBALRESP_LOGO
15.682	0	L365	1	0	STIM_LOGO
16.682	5	L365	1	0	RETENTION_LOGO
21.682	0	L365	NaN	NaN	VERBALRESP_LOGO
27.832	0	L157	0	0	STIM_LOGO
28.832	5	L157	0	0	RETENTION_LOGO
33.832	0	L157	NaN	NaN	VERBALRESP_LOGO
45.982	0	L265	2	1	STIM_LOGO
46.982	5	L265	2	1	RETENTION_LOGO
51.982	0	L265	NaN	NaN	VERBALRESP_LOGO
56.497	0	L265	NaN	NaN	KEYRESP_LOGO
62.999	0	L329	1	0	STIM_LOGO
63.999	5	L329	1	0	RETENTION_LOGO
68.999	0	L329	NaN	NaN	VERBALRESP_LOGO
77.149	0	L35	1	2	STIM_LOGO
78.149	5	L35	1	2	RETENTION_LOGO
83.149	0	L35	NaN	NaN	VERBALRESP_LOGO
87.86	0	L35	NaN	NaN	KEYRESP_LOGO
92.166	0	L232	1	2	STIM_LOGO
93.166	5	L232	1	2	RETENTION_LOGO
98.166	0	L232	NaN	NaN	VERBALRESP_LOGO
102.357	0	L232	NaN	NaN	KEYRESP_LOGO
105.166	0	L109	1	2	STIM_LOGO
106.166	5	L109	1	2	RETENTION_LOGO
111.166	0	L109	NaN	NaN	VERBALRESP_LOGO
114.855	0	L109	NaN	NaN	KEYRESP_LOGO
121.166	0	L389	1	2	STIM_LOGO
122.166	5	L389	1	2	RETENTION_LOGO
127.166	0	L389	NaN	NaN	VERBALRESP_LOGO
131.625	0	L389	NaN	NaN	KEYRESP_LOGO
134.166	0	L287	1	2	STIM_LOGO
135.166	5	L287	1	2	RETENTION_LOGO
140.166	0	L287	NaN	NaN	VERBALRESP_LOGO
144.464	0	L287	NaN	NaN	KEYRESP_LOGO
151.166	0	L117	1	0	STIM_LOGO
152.166	5	L117	1	0	RETENTION_LOGO
157.166	0	L117	NaN	NaN	VERBALRESP_LOGO
166.316	0	L314	1	2	STIM_LOGO
167.316	5	L314	1	2	RETENTION_LOGO
172.316	0	L314	NaN	NaN	VERBALRESP_LOGO
176.694	0	L314	NaN	NaN	KEYRESP_LOGO
183.316	0	L438	1	0	STIM_LOGO
184.316	5	L438	1	0	RETENTION_LOGO
189.316	0	L438	NaN	NaN	VERBALRESP_LOGO
195.45	0	L268	1	0	STIM_LOGO
196.45	5	L268	1	0	RETENTION_LOGO
201.45	0	L268	NaN	NaN	VERBALRESP_LOGO
213.616	0	L71	1	2	STIM_LOGO
214.616	5	L71	1	2	RETENTION_LOGO
219.617	0	L71	NaN	NaN	VERBALRESP_LOGO
223.914	0	L71	NaN	NaN	KEYRESP_LOGO
226.617	0	L155	1	0	STIM_LOGO
227.617	5	L155	1	0	RETENTION_LOGO
232.617	0	L155	NaN	NaN	VERBALRESP_LOGO
242.733	0	L273	1	1	STIM_LOGO
243.733	5	L273	1	1	RETENTION_LOGO
248.733	0	L273	NaN	NaN	VERBALRESP_LOGO
252.232	0	L273	NaN	NaN	KEYRESP_LOGO
256.75	0	L49	1	2	STIM_LOGO
257.75	5	L49	1	2	RETENTION_LOGO
262.75	0	L49	NaN	NaN	VERBALRESP_LOGO
266.31	0	L49	NaN	NaN	KEYRESP_LOGO
271.767	0	L440	1	2	STIM_LOGO
272.767	5	L440	1	2	RETENTION_LOGO
277.767	0	L440	NaN	NaN	VERBALRESP_LOGO
282.472	0	L440	NaN	NaN	KEYRESP_LOGO
285.783	0	L323	0	0	STIM_LOGO
286.783	5	L323	0	0	RETENTION_LOGO
291.783	0	L323	NaN	NaN	VERBALRESP_LOGO
298.867	0	L270	1	0	STIM_LOGO
299.867	5	L270	1	0	RETENTION_LOGO
304.867	0	L270	NaN	NaN	VERBALRESP_LOGO
312.017	0	L256	1	2	STIM_LOGO
313.017	5	L256	1	2	RETENTION_LOGO
318.017	0	L256	NaN	NaN	VERBALRESP_LOGO
322.954	0	L256	NaN	NaN	KEYRESP_LOGO
326.067	0	L327	0	0	STIM_LOGO
327.067	5	L327	0	0	RETENTION_LOGO
332.067	0	L327	NaN	NaN	VERBALRESP_LOGO
338.217	0	L355	1	2	STIM_LOGO
339.217	5	L355	1	2	RETENTION_LOGO
344.217	0	L355	NaN	NaN	VERBALRESP_LOGO
347.8	0	L355	NaN	NaN	KEYRESP_LOGO
351.234	0	L113	1	2	STIM_LOGO
352.234	5	L113	1	2	RETENTION_LOGO
357.234	0	L113	NaN	NaN	VERBALRESP_LOGO
361.746	0	L113	NaN	NaN	KEYRESP_LOGO
369.25	0	L316	1	2	STIM_LOGO
370.251	5	L316	1	2	RETENTION_LOGO
375.251	0	L316	NaN	NaN	VERBALRESP_LOGO
379.965	0	L316	NaN	NaN	KEYRESP_LOGO
381.251	0	L88	0	0	STIM_LOGO
382.25	5	L88	0	0	RETENTION_LOGO
387.251	0	L88	NaN	NaN	VERBALRESP_LOGO
398.417	0	L422	1	2	STIM_LOGO
399.417	5	L422	1	2	RETENTION_LOGO
404.417	0	L422	NaN	NaN	VERBALRESP_LOGO
408.768	0	L422	NaN	NaN	KEYRESP_LOGO
414.434	0	L92	1	1	STIM_LOGO
415.434	5	L92	1	1	RETENTION_LOGO
420.434	0	L92	NaN	NaN	VERBALRESP_LOGO
424.49	0	L92	NaN	NaN	KEYRESP_LOGO
432.451	0	L18	1	1	STIM_LOGO
433.451	5	L18	1	1	RETENTION_LOGO
438.451	0	L18	NaN	NaN	VERBALRESP_LOGO
442.72	0	L18	NaN	NaN	KEYRESP_LOGO
447.451	0	L317	1	2	STIM_LOGO
448.451	5	L317	1	2	RETENTION_LOGO
453.451	0	L317	NaN	NaN	VERBALRESP_LOGO
458.361	0	L317	NaN	NaN	KEYRESP_LOGO
463.484	0	L429	1	2	STIM_LOGO
464.484	5	L429	1	2	RETENTION_LOGO
469.484	0	L429	NaN	NaN	VERBALRESP_LOGO
473.866	0	L429	NaN	NaN	KEYRESP_LOGO
482.501	0	L122	1	1	STIM_LOGO
483.501	5	L122	1	1	RETENTION_LOGO
488.501	0	L122	NaN	NaN	VERBALRESP_LOGO
492.163	0	L122	NaN	NaN	KEYRESP_LOGO
501.501	0	L412	1	2	STIM_LOGO
502.501	5	L412	1	2	RETENTION_LOGO
507.501	0	L412	NaN	NaN	VERBALRESP_LOGO
511.279	0	L412	NaN	NaN	KEYRESP_LOGO
515.501	0	L292	1	1	STIM_LOGO
516.501	5	L292	1	1	RETENTION_LOGO
521.501	0	L292	NaN	NaN	VERBALRESP_LOGO
525.309	0	L292	NaN	NaN	KEYRESP_LOGO
528.501	0	L432	1	2	STIM_LOGO
529.501	5	L432	1	2	RETENTION_LOGO
534.501	0	L432	NaN	NaN	VERBALRESP_LOGO
538.399	0	L432	NaN	NaN	KEYRESP_LOGO
547.501	0	L28	1	2	STIM_LOGO
548.501	5	L28	1	2	RETENTION_LOGO
553.501	0	L28	NaN	NaN	VERBALRESP_LOGO
557.652	0	L28	NaN	NaN	KEYRESP_LOGO
563.501	0	L426	0	0	STIM_LOGO
564.501	5	L426	0	0	RETENTION_LOGO
569.501	0	L426	NaN	NaN	VERBALRESP_LOGO
578.585	0	L110	0	1	STIM_LOGO
579.585	5	L110	0	1	RETENTION_LOGO
584.585	0	L110	NaN	NaN	VERBALRESP_LOGO
588.691	0	L110	NaN	NaN	KEYRESP_LOGO
597.601	0	L137	0	0	STIM_LOGO
598.601	5	L137	0	0	RETENTION_LOGO
603.601	0	L137	NaN	NaN	VERBALRESP_LOGO
609.751	0	L341	1	0	STIM_LOGO
610.751	5	L341	1	0	RETENTION_LOGO
615.751	0	L341	NaN	NaN	VERBALRESP_LOGO
625.902	0	L186	1	2	STIM_LOGO
626.901	5	L186	1	2	RETENTION_LOGO
631.902	0	L186	NaN	NaN	VERBALRESP_LOGO
635.948	0	L186	NaN	NaN	KEYRESP_LOGO
637.902	0	L415	0	0	STIM_LOGO
638.902	5	L415	0	0	RETENTION_LOGO
643.902	0	L415	NaN	NaN	VERBALRESP_LOGO
650.118	0	L252	1	1	STIM_LOGO
651.118	5	L252	1	1	RETENTION_LOGO
656.118	0	L252	NaN	NaN	VERBALRESP_LOGO
660.952	0	L252	NaN	NaN	KEYRESP_LOGO
662.135	0	L269	1	0	STIM_LOGO
663.135	5	L269	1	0	RETENTION_LOGO
668.135	0	L269	NaN	NaN	VERBALRESP_LOGO
676.268	0	L170	1	2	STIM_LOGO
677.268	5	L170	1	2	RETENTION_LOGO
682.268	0	L170	NaN	NaN	VERBALRESP_LOGO
686.919	0	L170	NaN	NaN	KEYRESP_LOGO
693.285	0	L29	1	1	STIM_LOGO
694.285	5	L29	1	1	RETENTION_LOGO
699.285	0	L29	NaN	NaN	VERBALRESP_LOGO
702.972	0	L29	NaN	NaN	KEYRESP_LOGO
708.285	0	L303	0	1	STIM_LOGO
709.285	5	L303	0	1	RETENTION_LOGO
714.285	0	L303	NaN	NaN	VERBALRESP_LOGO
718.777	0	L303	NaN	NaN	KEYRESP_LOGO
721.285	0	L141	1	1	STIM_LOGO
722.285	5	L141	1	1	RETENTION_LOGO
727.285	0	L141	NaN	NaN	VERBALRESP_LOGO
731.621	0	L141	NaN	NaN	KEYRESP_LOGO
738.285	0	L260	1	2	STIM_LOGO
739.285	5	L260	1	2	RETENTION_LOGO
744.285	0	L260	NaN	NaN	VERBALRESP_LOGO
748.346	0	L260	NaN	NaN	KEYRESP_LOGO
750.346	8	NaN	NaN	NaN	BREAK
759.285	0	L220	NaN	1	STIM_BRAND
760.285	5	L220	NaN	1	RETENTION_BRAND
766.815	0	L220	NaN	NaN	KEYRESP_BRAND
769.285	0	L365	NaN	2	STIM_BRAND
770.285	5	L365	NaN	2	RETENTION_BRAND
777.21	0	L365	NaN	NaN	KEYRESP_BRAND
779.285	0	L269	NaN	2	STIM_BRAND
780.285	5	L269	NaN	2	RETENTION_BRAND
786.698	0	L269	NaN	NaN	KEYRESP_BRAND
788.285	0	L110	NaN	1	STIM_BRAND
789.285	5	L110	NaN	1	RETENTION_BRAND
795.132	0	L110	NaN	NaN	KEYRESP_BRAND
798.286	0	L317	NaN	2	STIM_BRAND
799.286	5	L317	NaN	2	RETENTION_BRAND
805.001	0	L317	NaN	NaN	KEYRESP_BRAND
807.786	0	L141	NaN	2	STIM_BRAND
808.786	5	L141	NaN	2	RETENTION_BRAND
814.933	0	L141	NaN	NaN	KEYRESP_BRAND
816.786	0	L323	NaN	1	STIM_BRAND
817.786	5	L323	NaN	1	RETENTION_BRAND
823.302	0	L323	NaN	NaN	KEYRESP_BRAND
826.786	0	L122	NaN	0	STIM_BRAND
827.786	5	L122	NaN	0	RETENTION_BRAND
836.802	0	L88	NaN	1	STIM_BRAND
837.802	5	L88	NaN	1	RETENTION_BRAND
843.555	0	L88	NaN	NaN	KEYRESP_BRAND
845.802	0	L71	NaN	2	STIM_BRAND
846.802	5	L71	NaN	2	RETENTION_BRAND
852.622	0	L71	NaN	NaN	KEYRESP_BRAND
855.802	0	L186	NaN	2	STIM_BRAND
856.802	5	L186	NaN	2	RETENTION_BRAND
863.153	0	L186	NaN	NaN	KEYRESP_BRAND
864.802	0	L260	NaN	2	STIM_BRAND
865.802	5	L260	NaN	2	RETENTION_BRAND
871.638	0	L260	NaN	NaN	KEYRESP_BRAND
874.302	0	L256	NaN	1	STIM_BRAND
875.302	5	L256	NaN	1	RETENTION_BRAND
881.814	0	L256	NaN	NaN	KEYRESP_BRAND
883.803	0	L170	NaN	2	STIM_BRAND
884.802	5	L170	NaN	2	RETENTION_BRAND
891.495	0	L170	NaN	NaN	KEYRESP_BRAND
893.803	0	L412	NaN	0	STIM_BRAND
894.803	5	L412	NaN	0	RETENTION_BRAND
902.819	0	L265	NaN	2	STIM_BRAND
903.819	5	L265	NaN	2	RETENTION_BRAND
910.713	0	L265	NaN	NaN	KEYRESP_BRAND
911.819	0	L155	NaN	2	STIM_BRAND
912.819	5	L155	NaN	2	RETENTION_BRAND
919.055	0	L155	NaN	NaN	KEYRESP_BRAND
921.819	0	L117	NaN	2	STIM_BRAND
922.819	5	L117	NaN	2	RETENTION_BRAND
928.68	0	L117	NaN	NaN	KEYRESP_BRAND
931.819	0	L252	NaN	2	STIM_BRAND
932.819	5	L252	NaN	2	RETENTION_BRAND
938.915	0	L252	NaN	NaN	KEYRESP_BRAND
941.319	0	L389	NaN	2	STIM_BRAND
942.319	5	L389	NaN	2	RETENTION_BRAND
947.847	0	L389	NaN	NaN	KEYRESP_BRAND
950.319	0	L415	NaN	2	STIM_BRAND
951.319	5	L415	NaN	2	RETENTION_BRAND
957.331	0	L415	NaN	NaN	KEYRESP_BRAND
959.819	0	L28	NaN	2	STIM_BRAND
960.819	5	L28	NaN	2	RETENTION_BRAND
967.296	0	L28	NaN	NaN	KEYRESP_BRAND
969.319	0	L35	NaN	2	STIM_BRAND
970.32	5	L35	NaN	2	RETENTION_BRAND
976.309	0	L35	NaN	NaN	KEYRESP_BRAND
978.32	0	L113	NaN	1	STIM_BRAND
979.32	5	L113	NaN	1	RETENTION_BRAND
985.303	0	L113	NaN	NaN	KEYRESP_BRAND
988.32	0	L316	NaN	1	STIM_BRAND
989.319	5	L316	NaN	1	RETENTION_BRAND
995.945	0	L316	NaN	NaN	KEYRESP_BRAND
997.82	0	L292	NaN	1	STIM_BRAND
998.82	5	L292	NaN	1	RETENTION_BRAND
1004.629	0	L292	NaN	NaN	KEYRESP_BRAND
1006.82	0	L268	NaN	2	STIM_BRAND
1007.82	5	L268	NaN	2	RETENTION_BRAND
1014.261	0	L268	NaN	NaN	KEYRESP_BRAND
1016.82	0	L232	NaN	2	STIM_BRAND
1017.82	5	L232	NaN	2	RETENTION_BRAND
1024.294	0	L232	NaN	NaN	KEYRESP_BRAND
1025.82	0	L429	NaN	1	STIM_BRAND
1026.82	5	L429	NaN	1	RETENTION_BRAND
1033.509	0	L429	NaN	NaN	KEYRESP_BRAND
1034.82	0	L329	NaN	2	STIM_BRAND
1035.82	5	L329	NaN	2	RETENTION_BRAND
1042.402	0	L329	NaN	NaN	KEYRESP_BRAND
1044.82	0	L327	NaN	1	STIM_BRAND
1045.82	5	L327	NaN	1	RETENTION_BRAND
1051.516	0	L327	NaN	NaN	KEYRESP_BRAND
1053.82	0	L440	NaN	2	STIM_BRAND
1054.82	5	L440	NaN	2	RETENTION_BRAND
1060.515	0	L440	NaN	NaN	KEYRESP_BRAND
1063.32	0	L422	NaN	0	STIM_BRAND
1064.32	5	L422	NaN	0	RETENTION_BRAND
1072.337	0	L29	NaN	1	STIM_BRAND
1073.337	5	L29	NaN	1	RETENTION_BRAND
1079.886	0	L29	NaN	NaN	KEYRESP_BRAND
1081.337	0	L355	NaN	1	STIM_BRAND
1082.337	5	L355	NaN	1	RETENTION_BRAND
1088.473	0	L355	NaN	NaN	KEYRESP_BRAND
1090.837	0	L157	NaN	1	STIM_BRAND
1091.837	5	L157	NaN	1	RETENTION_BRAND
1097.601	0	L157	NaN	NaN	KEYRESP_BRAND
1099.837	0	L438	NaN	1	STIM_BRAND
1100.837	5	L438	NaN	1	RETENTION_BRAND
1106.383	0	L438	NaN	NaN	KEYRESP_BRAND
1109.337	0	L109	NaN	2	STIM_BRAND
1110.337	5	L109	NaN	2	RETENTION_BRAND
1117.091	0	L109	NaN	NaN	KEYRESP_BRAND
1118.837	0	L270	NaN	2	STIM_BRAND
1119.837	5	L270	NaN	2	RETENTION_BRAND
1125.647	0	L270	NaN	NaN	KEYRESP_BRAND
1128.837	0	L314	NaN	2	STIM_BRAND
1129.837	5	L314	NaN	2	RETENTION_BRAND
1135.888	0	L314	NaN	NaN	KEYRESP_BRAND
1138.837	0	L287	NaN	0	STIM_BRAND
1139.837	5	L287	NaN	0	RETENTION_BRAND
1148.853	0	L341	NaN	1	STIM_BRAND
1149.853	5	L341	NaN	1	RETENTION_BRAND
1155.437	0	L341	NaN	NaN	KEYRESP_BRAND
1158.853	0	L303	NaN	1	STIM_BRAND
1159.854	5	L303	NaN	1	RETENTION_BRAND
1165.529	0	L303	NaN	NaN	KEYRESP_BRAND
1168.354	0	L49	NaN	2	STIM_BRAND
1169.354	5	L49	NaN	2	RETENTION_BRAND
1175.201	0	L49	NaN	NaN	KEYRESP_BRAND
1177.854	0	L137	NaN	1	STIM_BRAND
1178.854	5	L137	NaN	1	RETENTION_BRAND
1184.409	0	L137	NaN	NaN	KEYRESP_BRAND
1187.354	0	L92	NaN	1	STIM_BRAND
1188.354	5	L92	NaN	1	RETENTION_BRAND
1194.04	0	L92	NaN	NaN	KEYRESP_BRAND
1196.854	0	L426	NaN	1	STIM_BRAND
1197.854	5	L426	NaN	1	RETENTION_BRAND
1203.466	0	L426	NaN	NaN	KEYRESP_BRAND
1206.354	0	L273	NaN	2	STIM_BRAND
1207.354	5	L273	NaN	2	RETENTION_BRAND
1213.167	0	L273	NaN	NaN	KEYRESP_BRAND
1215.354	0	L432	NaN	2	STIM_BRAND
1216.354	5	L432	NaN	2	RETENTION_BRAND
1221.966	0	L432	NaN	NaN	KEYRESP_BRAND
1225.354	0	L18	NaN	1	STIM_BRAND
1226.354	5	L18	NaN	1	RETENTION_BRAND
1231.875	0	L18	NaN	NaN	KEYRESP_BRAND
