onset	duration	stim_filename	verbal_resp	key_resp	event_type
2.028	0	L121	2	2	STIM_LOGO
3.028	5	L121	2	2	RETENTION_LOGO
8.028	0	L121	NaN	NaN	VERBALRESP_LOGO
12.962	0	L121	NaN	NaN	KEYRESP_LOGO
15.311	0	L111	2	1	STIM_LOGO
16.311	5	L111	2	1	RETENTION_LOGO
21.311	0	L111	NaN	NaN	VERBALRESP_LOGO
25.658	0	L111	NaN	NaN	KEYRESP_LOGO
27.328	0	L63	0	1	STIM_LOGO
28.328	5	L63	0	1	RETENTION_LOGO
33.328	0	L63	NaN	NaN	VERBALRESP_LOGO
37.504	0	L63	NaN	NaN	KEYRESP_LOGO
39.345	0	L188	2	2	STIM_LOGO
40.344	5	L188	2	2	RETENTION_LOGO
45.344	0	L188	NaN	NaN	VERBALRESP_LOGO
49.872	0	L188	NaN	NaN	KEYRESP_LOGO
53.345	0	L288	0	1	STIM_LOGO
54.345	5	L288	0	1	RETENTION_LOGO
59.345	0	L288	NaN	NaN	VERBALRESP_LOGO
63.584	0	L288	NaN	NaN	KEYRESP_LOGO
65.345	0	L250	0	1	STIM_LOGO
66.345	5	L250	0	1	RETENTION_LOGO
71.345	0	L250	NaN	NaN	VERBALRESP_LOGO
74.926	0	L250	NaN	NaN	KEYRESP_LOGO
79.345	0	L74	0	1	STIM_LOGO
80.345	5	L74	0	1	RETENTION_LOGO
85.345	0	L74	NaN	NaN	VERBALRESP_LOGO
89.584	0	L74	NaN	NaN	KEYRESP_LOGO
92.345	0	L46	1	2	STIM_LOGO
93.345	5	L46	1	2	RETENTION_LOGO
98.345	0	L46	NaN	NaN	VERBALRESP_LOGO
102.043	0	L46	NaN	NaN	KEYRESP_LOGO
109.345	0	L422	0	1	STIM_LOGO
110.345	5	L422	0	1	RETENTION_LOGO
115.345	0	L422	NaN	NaN	VERBALRESP_LOGO
120.328	0	L422	NaN	NaN	KEYRESP_LOGO
124.462	0	L194	0	2	STIM_LOGO
125.462	5	L194	0	2	RETENTION_LOGO
130.462	0	L194	NaN	NaN	VERBALRESP_LOGO
134.38	0	L194	NaN	NaN	KEYRESP_LOGO
138.478	0	L398	0	1	STIM_LOGO
139.478	5	L398	0	1	RETENTION_LOGO
144.478	0	L398	NaN	NaN	VERBALRESP_LOGO
148.771	0	L398	NaN	NaN	KEYRESP_LOGO
154.495	0	L65	1	2	STIM_LOGO
155.495	5	L65	1	2	RETENTION_LOGO
160.495	0	L65	NaN	NaN	VERBALRESP_LOGO
164.534	0	L65	NaN	NaN	KEYRESP_LOGO
173.495	0	L357	0	2	STIM_LOGO
174.495	5	L357	0	2	RETENTION_LOGO
179.495	0	L357	NaN	NaN	VERBALRESP_LOGO
183.928	0	L357	NaN	NaN	KEYRESP_LOGO
192.495	0	L57	0	1	STIM_LOGO
193.495	5	L57	0	1	RETENTION_LOGO
198.495	0	L57	NaN	NaN	VERBALRESP_LOGO
202.253	0	L57	NaN	NaN	KEYRESP_LOGO
209.496	0	L413	0	1	STIM_LOGO
210.495	5	L413	0	1	RETENTION_LOGO
215.495	0	L413	NaN	NaN	VERBALRESP_LOGO
219.248	0	L413	NaN	NaN	KEYRESP_LOGO
221.495	0	L85	0	1	STIM_LOGO
222.496	5	L85	0	1	RETENTION_LOGO
227.496	0	L85	NaN	NaN	VERBALRESP_LOGO
231.847	0	L85	NaN	NaN	KEYRESP_LOGO
237.496	0	L329	0	2	STIM_LOGO
238.496	5	L329	0	2	RETENTION_LOGO
243.496	0	L329	NaN	NaN	VERBALRESP_LOGO
247.054	0	L329	NaN	NaN	KEYRESP_LOGO
254.496	0	L252	0	2	STIM_LOGO
255.496	5	L252	0	2	RETENTION_LOGO
260.496	0	L252	NaN	NaN	VERBALRESP_LOGO
264.382	0	L252	NaN	NaN	KEYRESP_LOGO
267.496	0	L113	0	1	STIM_LOGO
268.496	5	L113	0	1	RETENTION_LOGO
273.496	0	L113	NaN	NaN	VERBALRESP_LOGO
277.105	0	L113	NaN	NaN	KEYRESP_LOGO
284.496	0	L292	2	2	STIM_LOGO
285.496	5	L292	2	2	RETENTION_LOGO
290.496	0	L292	NaN	NaN	VERBALRESP_LOGO
294.306	0	L292	NaN	NaN	KEYRESP_LOGO
300.496	0	L415	0	1	STIM_LOGO
301.496	5	L415	0	1	RETENTION_LOGO
306.496	0	L415	NaN	NaN	VERBALRESP_LOGO
310.802	0	L415	NaN	NaN	KEYRESP_LOGO
312.496	0	L317	0	1	STIM_LOGO
313.496	5	L317	0	1	RETENTION_LOGO
318.496	0	L317	NaN	NaN	VERBALRESP_LOGO
322.278	0	L317	NaN	NaN	KEYRESP_LOGO
325.496	0	L328	1	2	STIM_LOGO
326.496	5	L328	1	2	RETENTION_LOGO
331.496	0	L328	NaN	NaN	VERBALRESP_LOGO
335.452	0	L328	NaN	NaN	KEYRESP_LOGO
338.496	0	L122	3	2	STIM_LOGO
339.496	5	L122	3	2	RETENTION_LOGO
344.496	0	L122	NaN	NaN	VERBALRESP_LOGO
348.644	0	L122	NaN	NaN	KEYRESP_LOGO
356.496	0	L158	0	2	STIM_LOGO
357.496	5	L158	0	2	RETENTION_LOGO
362.496	0	L158	NaN	NaN	VERBALRESP_LOGO
367.17	0	L158	NaN	NaN	KEYRESP_LOGO
373.496	0	L97	0	1	STIM_LOGO
374.496	5	L97	0	1	RETENTION_LOGO
379.496	0	L97	NaN	NaN	VERBALRESP_LOGO
383.464	0	L97	NaN	NaN	KEYRESP_LOGO
385.496	0	L360	0	1	STIM_LOGO
386.496	5	L360	0	1	RETENTION_LOGO
391.497	0	L360	NaN	NaN	VERBALRESP_LOGO
395.342	0	L360	NaN	NaN	KEYRESP_LOGO
397.496	0	L29	0	1	STIM_LOGO
398.497	5	L29	0	1	RETENTION_LOGO
403.497	0	L29	NaN	NaN	VERBALRESP_LOGO
407.295	0	L29	NaN	NaN	KEYRESP_LOGO
416.497	0	L257	0	1	STIM_LOGO
417.497	5	L257	0	1	RETENTION_LOGO
422.497	0	L257	NaN	NaN	VERBALRESP_LOGO
426.095	0	L257	NaN	NaN	KEYRESP_LOGO
435.497	0	L26	1	2	STIM_LOGO
436.497	5	L26	1	2	RETENTION_LOGO
441.497	0	L26	NaN	NaN	VERBALRESP_LOGO
445.357	0	L26	NaN	NaN	KEYRESP_LOGO
451.513	0	L210	1	2	STIM_LOGO
452.513	5	L210	1	2	RETENTION_LOGO
457.514	0	L210	NaN	NaN	VERBALRESP_LOGO
461.421	0	L210	NaN	NaN	KEYRESP_LOGO
469.53	0	L130	1	2	STIM_LOGO
470.53	5	L130	1	2	RETENTION_LOGO
475.53	0	L130	NaN	NaN	VERBALRESP_LOGO
479.276	0	L130	NaN	NaN	KEYRESP_LOGO
482.53	0	L173	0	2	STIM_LOGO
483.53	5	L173	0	2	RETENTION_LOGO
488.53	0	L173	NaN	NaN	VERBALRESP_LOGO
492.109	0	L173	NaN	NaN	KEYRESP_LOGO
495.53	0	L373	1	2	STIM_LOGO
496.53	5	L373	1	2	RETENTION_LOGO
501.53	0	L373	NaN	NaN	VERBALRESP_LOGO
505.205	0	L373	NaN	NaN	KEYRESP_LOGO
513.53	0	L64	1	2	STIM_LOGO
514.531	5	L64	1	2	RETENTION_LOGO
519.531	0	L64	NaN	NaN	VERBALRESP_LOGO
523.144	0	L64	NaN	NaN	KEYRESP_LOGO
528.531	0	L141	0	2	STIM_LOGO
529.531	5	L141	0	2	RETENTION_LOGO
534.531	0	L141	NaN	NaN	VERBALRESP_LOGO
538.289	0	L141	NaN	NaN	KEYRESP_LOGO
541.531	0	L143	0	1	STIM_LOGO
542.531	5	L143	0	1	RETENTION_LOGO
547.531	0	L143	NaN	NaN	VERBALRESP_LOGO
551.022	0	L143	NaN	NaN	KEYRESP_LOGO
555.531	0	L395	0	2	STIM_LOGO
556.531	5	L395	0	2	RETENTION_LOGO
561.531	0	L395	NaN	NaN	VERBALRESP_LOGO
565.922	0	L395	NaN	NaN	KEYRESP_LOGO
572.531	0	L425	0	2	STIM_LOGO
573.531	5	L425	0	2	RETENTION_LOGO
578.531	0	L425	NaN	NaN	VERBALRESP_LOGO
583.227	0	L425	NaN	NaN	KEYRESP_LOGO
587.531	0	L338	1	2	STIM_LOGO
588.531	5	L338	1	2	RETENTION_LOGO
593.531	0	L338	NaN	NaN	VERBALRESP_LOGO
597.22	0	L338	NaN	NaN	KEYRESP_LOGO
603.531	0	L287	1	2	STIM_LOGO
604.531	5	L287	1	2	RETENTION_LOGO
609.531	0	L287	NaN	NaN	VERBALRESP_LOGO
613.751	0	L287	NaN	NaN	KEYRESP_LOGO
617.531	0	L241	0	1	STIM_LOGO
618.531	5	L241	0	1	RETENTION_LOGO
623.531	0	L241	NaN	NaN	VERBALRESP_LOGO
627.762	0	L241	NaN	NaN	KEYRESP_LOGO
630.531	0	L137	0	1	STIM_LOGO
631.531	5	L137	0	1	RETENTION_LOGO
636.531	0	L137	NaN	NaN	VERBALRESP_LOGO
640.437	0	L137	NaN	NaN	KEYRESP_LOGO
644.531	0	L202	0	1	STIM_LOGO
645.531	5	L202	0	1	RETENTION_LOGO
650.531	0	L202	NaN	NaN	VERBALRESP_LOGO
654.224	0	L202	NaN	NaN	KEYRESP_LOGO
656.531	0	L228	0	1	STIM_LOGO
657.531	5	L228	0	1	RETENTION_LOGO
662.531	0	L228	NaN	NaN	VERBALRESP_LOGO
666.477	0	L228	NaN	NaN	KEYRESP_LOGO
671.531	0	L70	0	1	STIM_LOGO
672.531	5	L70	0	1	RETENTION_LOGO
677.531	0	L70	NaN	NaN	VERBALRESP_LOGO
681.426	0	L70	NaN	NaN	KEYRESP_LOGO
686.531	0	L403	1	2	STIM_LOGO
687.531	5	L403	1	2	RETENTION_LOGO
692.531	0	L403	NaN	NaN	VERBALRESP_LOGO
696.725	0	L403	NaN	NaN	KEYRESP_LOGO
704.531	0	L404	0	1	STIM_LOGO
705.531	5	L404	0	1	RETENTION_LOGO
710.532	0	L404	NaN	NaN	VERBALRESP_LOGO
714.155	0	L404	NaN	NaN	KEYRESP_LOGO
720.532	0	L49	2	2	STIM_LOGO
721.532	5	L49	2	2	RETENTION_LOGO
726.532	0	L49	NaN	NaN	VERBALRESP_LOGO
731.132	0	L49	NaN	NaN	KEYRESP_LOGO
735.532	0	L417	1	2	STIM_LOGO
736.532	5	L417	1	2	RETENTION_LOGO
741.532	0	L417	NaN	NaN	VERBALRESP_LOGO
745.421	0	L417	NaN	NaN	KEYRESP_LOGO
747.421	8	NaN	NaN	NaN	BREAK
756.532	0	L121	NaN	2	STIM_BRAND
757.532	5	L121	NaN	2	RETENTION_BRAND
764.092	0	L121	NaN	NaN	KEYRESP_BRAND
766.532	0	L111	NaN	2	STIM_BRAND
767.532	5	L111	NaN	2	RETENTION_BRAND
773.377	0	L111	NaN	NaN	KEYRESP_BRAND
776.032	0	L252	NaN	2	STIM_BRAND
777.032	5	L252	NaN	2	RETENTION_BRAND
783.642	0	L252	NaN	NaN	KEYRESP_BRAND
785.032	0	L173	NaN	1	STIM_BRAND
786.032	5	L173	NaN	1	RETENTION_BRAND
792.018	0	L173	NaN	NaN	KEYRESP_BRAND
795.032	0	L137	NaN	1	STIM_BRAND
796.032	5	L137	NaN	1	RETENTION_BRAND
801.646	0	L137	NaN	NaN	KEYRESP_BRAND
804.032	0	L292	NaN	0	STIM_BRAND
805.032	5	L292	NaN	0	RETENTION_BRAND
813.549	0	L395	NaN	2	STIM_BRAND
814.549	5	L395	NaN	2	RETENTION_BRAND
820.894	0	L395	NaN	NaN	KEYRESP_BRAND
823.549	0	L122	NaN	1	STIM_BRAND
824.549	5	L122	NaN	1	RETENTION_BRAND
830.575	0	L122	NaN	NaN	KEYRESP_BRAND
833.049	0	L158	NaN	1	STIM_BRAND
834.049	5	L158	NaN	1	RETENTION_BRAND
840.312	0	L158	NaN	NaN	KEYRESP_BRAND
842.049	0	L403	NaN	2	STIM_BRAND
843.049	5	L403	NaN	2	RETENTION_BRAND
849.052	0	L403	NaN	NaN	KEYRESP_BRAND
851.549	0	L29	NaN	1	STIM_BRAND
852.549	5	L29	NaN	1	RETENTION_BRAND
858.564	0	L29	NaN	NaN	KEYRESP_BRAND
861.049	0	L398	NaN	1	STIM_BRAND
862.049	5	L398	NaN	1	RETENTION_BRAND
868.568	0	L398	NaN	NaN	KEYRESP_BRAND
871.049	0	L317	NaN	2	STIM_BRAND
872.049	5	L317	NaN	2	RETENTION_BRAND
878.487	0	L317	NaN	NaN	KEYRESP_BRAND
881.049	0	L373	NaN	2	STIM_BRAND
882.049	5	L373	NaN	2	RETENTION_BRAND
887.962	0	L373	NaN	NaN	KEYRESP_BRAND
890.049	0	L210	NaN	2	STIM_BRAND
891.049	5	L210	NaN	2	RETENTION_BRAND
896.538	0	L210	NaN	NaN	KEYRESP_BRAND
899.549	0	L65	NaN	2	STIM_BRAND
900.549	5	L65	NaN	2	RETENTION_BRAND
906.642	0	L65	NaN	NaN	KEYRESP_BRAND
909.049	0	L113	NaN	2	STIM_BRAND
910.049	5	L113	NaN	2	RETENTION_BRAND
916.714	0	L113	NaN	NaN	KEYRESP_BRAND
919.049	0	L97	NaN	1	STIM_BRAND
920.049	5	L97	NaN	1	RETENTION_BRAND
926.047	0	L97	NaN	NaN	KEYRESP_BRAND
929.049	0	L26	NaN	2	STIM_BRAND
930.049	5	L26	NaN	2	RETENTION_BRAND
935.724	0	L26	NaN	NaN	KEYRESP_BRAND
938.549	0	L357	NaN	2	STIM_BRAND
939.549	5	L357	NaN	2	RETENTION_BRAND
946.163	0	L357	NaN	NaN	KEYRESP_BRAND
947.549	0	L194	NaN	1	STIM_BRAND
948.549	5	L194	NaN	1	RETENTION_BRAND
954.416	0	L194	NaN	NaN	KEYRESP_BRAND
957.049	0	L228	NaN	1	STIM_BRAND
958.049	5	L228	NaN	1	RETENTION_BRAND
964.235	0	L228	NaN	NaN	KEYRESP_BRAND
966.05	0	L425	NaN	2	STIM_BRAND
967.05	5	L425	NaN	2	RETENTION_BRAND
972.8	0	L425	NaN	NaN	KEYRESP_BRAND
975.55	0	L329	NaN	2	STIM_BRAND
976.549	5	L329	NaN	2	RETENTION_BRAND
982.31	0	L329	NaN	NaN	KEYRESP_BRAND
985.55	0	L250	NaN	1	STIM_BRAND
986.55	5	L250	NaN	1	RETENTION_BRAND
992.48	0	L250	NaN	NaN	KEYRESP_BRAND
994.55	0	L49	NaN	1	STIM_BRAND
995.55	5	L49	NaN	1	RETENTION_BRAND
1001.485	0	L49	NaN	NaN	KEYRESP_BRAND
1004.55	0	L413	NaN	1	STIM_BRAND
1005.55	5	L413	NaN	1	RETENTION_BRAND
1011.934	0	L413	NaN	NaN	KEYRESP_BRAND
1013.55	0	L130	NaN	2	STIM_BRAND
1014.55	5	L130	NaN	2	RETENTION_BRAND
1020.403	0	L130	NaN	NaN	KEYRESP_BRAND
1023.05	0	L85	NaN	1	STIM_BRAND
1024.05	5	L85	NaN	1	RETENTION_BRAND
1030.483	0	L85	NaN	NaN	KEYRESP_BRAND
1032.55	0	L422	NaN	1	STIM_BRAND
1033.55	5	L422	NaN	1	RETENTION_BRAND
1039.638	0	L422	NaN	NaN	KEYRESP_BRAND
1042.55	0	L46	NaN	2	STIM_BRAND
1043.55	5	L46	NaN	2	RETENTION_BRAND
1049.601	0	L46	NaN	NaN	KEYRESP_BRAND
1052.55	0	L74	NaN	1	STIM_BRAND
1053.55	5	L74	NaN	1	RETENTION_BRAND
1060.236	0	L74	NaN	NaN	KEYRESP_BRAND
1062.55	0	L188	NaN	2	STIM_BRAND
1063.55	5	L188	NaN	2	RETENTION_BRAND
1070.139	0	L188	NaN	NaN	KEYRESP_BRAND
1072.55	0	L64	NaN	2	STIM_BRAND
1073.55	5	L64	NaN	2	RETENTION_BRAND
1079.865	0	L64	NaN	NaN	KEYRESP_BRAND
1081.55	0	L404	NaN	1	STIM_BRAND
1082.55	5	L404	NaN	1	RETENTION_BRAND
1088.573	0	L404	NaN	NaN	KEYRESP_BRAND
1091.55	0	L63	NaN	2	STIM_BRAND
1092.55	5	L63	NaN	2	RETENTION_BRAND
1098.851	0	L63	NaN	NaN	KEYRESP_BRAND
1100.55	0	L328	NaN	2	STIM_BRAND
1101.55	5	L328	NaN	2	RETENTION_BRAND
1107.274	0	L328	NaN	NaN	KEYRESP_BRAND
1110.55	0	L202	NaN	1	STIM_BRAND
1111.55	5	L202	NaN	1	RETENTION_BRAND
1117.256	0	L202	NaN	NaN	KEYRESP_BRAND
1120.05	0	L360	NaN	1	STIM_BRAND
1121.05	5	L360	NaN	1	RETENTION_BRAND
1126.816	0	L360	NaN	NaN	KEYRESP_BRAND
1129.55	0	L415	NaN	1	STIM_BRAND
1130.55	5	L415	NaN	1	RETENTION_BRAND
1136.918	0	L415	NaN	NaN	KEYRESP_BRAND
1138.55	0	L57	NaN	1	STIM_BRAND
1139.55	5	L57	NaN	1	RETENTION_BRAND
1145.72	0	L57	NaN	NaN	KEYRESP_BRAND
1148.55	0	L417	NaN	2	STIM_BRAND
1149.55	5	L417	NaN	2	RETENTION_BRAND
1155.31	0	L417	NaN	NaN	KEYRESP_BRAND
1157.55	0	L141	NaN	2	STIM_BRAND
1158.55	5	L141	NaN	2	RETENTION_BRAND
1164.858	0	L141	NaN	NaN	KEYRESP_BRAND
1166.55	0	L338	NaN	2	STIM_BRAND
1167.55	5	L338	NaN	2	RETENTION_BRAND
1173.867	0	L338	NaN	NaN	KEYRESP_BRAND
1175.551	0	L70	NaN	1	STIM_BRAND
1176.551	5	L70	NaN	1	RETENTION_BRAND
1183.351	0	L70	NaN	NaN	KEYRESP_BRAND
1184.551	0	L288	NaN	1	STIM_BRAND
1185.551	5	L288	NaN	1	RETENTION_BRAND
1191.223	0	L288	NaN	NaN	KEYRESP_BRAND
1193.551	0	L257	NaN	1	STIM_BRAND
1194.551	5	L257	NaN	1	RETENTION_BRAND
1200.324	0	L257	NaN	NaN	KEYRESP_BRAND
1203.051	0	L287	NaN	2	STIM_BRAND
1204.051	5	L287	NaN	2	RETENTION_BRAND
1209.706	0	L287	NaN	NaN	KEYRESP_BRAND
1213.051	0	L241	NaN	1	STIM_BRAND
1214.051	5	L241	NaN	1	RETENTION_BRAND
1219.791	0	L241	NaN	NaN	KEYRESP_BRAND
1222.551	0	L143	NaN	1	STIM_BRAND
1223.551	5	L143	NaN	1	RETENTION_BRAND
1229.04	0	L143	NaN	NaN	KEYRESP_BRAND
