onset	duration	stim_filename	verbal_resp	key_resp	event_type
2.031	0	L108	2	1	STIM_LOGO
3.031	5	L108	2	1	RETENTION_LOGO
8.031	0	L108	NaN	NaN	VERBALRESP_LOGO
11.888	0	L108	NaN	NaN	KEYRESP_LOGO
15.031	0	L246	2	2	STIM_LOGO
16.031	5	L246	2	2	RETENTION_LOGO
21.031	0	L246	NaN	NaN	VERBALRESP_LOGO
24.781	0	L246	NaN	NaN	KEYRESP_LOGO
27.031	0	L404	0	1	STIM_LOGO
28.031	5	L404	0	1	RETENTION_LOGO
33.031	0	L404	NaN	NaN	VERBALRESP_LOGO
36.818	0	L404	NaN	NaN	KEYRESP_LOGO
44.031	0	L103	1	2	STIM_LOGO
45.031	5	L103	1	2	RETENTION_LOGO
50.03	0	L103	NaN	NaN	VERBALRESP_LOGO
53.672	0	L103	NaN	NaN	KEYRESP_LOGO
59.03	0	L64	0	1	STIM_LOGO
60.03	5	L64	0	1	RETENTION_LOGO
65.03	0	L64	NaN	NaN	VERBALRESP_LOGO
69.298	0	L64	NaN	NaN	KEYRESP_LOGO
72.03	0	L252	1	2	STIM_LOGO
73.03	5	L252	1	2	RETENTION_LOGO
78.03	0	L252	NaN	NaN	VERBALRESP_LOGO
82.309	0	L252	NaN	NaN	KEYRESP_LOGO
86.03	0	L427	0	2	STIM_LOGO
87.03	5	L427	0	2	RETENTION_LOGO
92.03	0	L427	NaN	NaN	VERBALRESP_LOGO
96.361	0	L427	NaN	NaN	KEYRESP_LOGO
99.03	0	L232	1	2	STIM_LOGO
100.03	5	L232	1	2	RETENTION_LOGO
105.03	0	L232	NaN	NaN	VERBALRESP_LOGO
108.792	0	L232	NaN	NaN	KEYRESP_LOGO
117.03	0	L16	1	2	STIM_LOGO
118.03	5	L16	1	2	RETENTION_LOGO
123.03	0	L16	NaN	NaN	VERBALRESP_LOGO
126.546	0	L16	NaN	NaN	KEYRESP_LOGO
132.03	0	L113	0	1	STIM_LOGO
133.03	5	L113	0	1	RETENTION_LOGO
138.03	0	L113	NaN	NaN	VERBALRESP_LOGO
141.98	0	L113	NaN	NaN	KEYRESP_LOGO
144.03	0	L85	0	1	STIM_LOGO
145.03	5	L85	0	1	RETENTION_LOGO
150.03	0	L85	NaN	NaN	VERBALRESP_LOGO
153.74	0	L85	NaN	NaN	KEYRESP_LOGO
158.03	0	L316	1	2	STIM_LOGO
159.03	5	L316	1	2	RETENTION_LOGO
164.03	0	L316	NaN	NaN	VERBALRESP_LOGO
167.747	0	L316	NaN	NaN	KEYRESP_LOGO
175.03	0	L276	1	2	STIM_LOGO
176.03	5	L276	1	2	RETENTION_LOGO
181.03	0	L276	NaN	NaN	VERBALRESP_LOGO
184.805	0	L276	NaN	NaN	KEYRESP_LOGO
187.03	0	L312	1	2	STIM_LOGO
188.03	5	L312	1	2	RETENTION_LOGO
193.03	0	L312	NaN	NaN	VERBALRESP_LOGO
196.71	0	L312	NaN	NaN	KEYRESP_LOGO
199.03	0	L317	1	2	STIM_LOGO
200.03	5	L317	1	2	RETENTION_LOGO
205.03	0	L317	NaN	NaN	VERBALRESP_LOGO
209.327	0	L317	NaN	NaN	KEYRESP_LOGO
215.03	0	L279	1	2	STIM_LOGO
216.03	5	L279	1	2	RETENTION_LOGO
221.03	0	L279	NaN	NaN	VERBALRESP_LOGO
224.916	0	L279	NaN	NaN	KEYRESP_LOGO
232.03	0	L136	0	1	STIM_LOGO
233.029	5	L136	0	1	RETENTION_LOGO
238.029	0	L136	NaN	NaN	VERBALRESP_LOGO
242.089	0	L136	NaN	NaN	KEYRESP_LOGO
246.029	0	L315	0	2	STIM_LOGO
247.029	5	L315	0	2	RETENTION_LOGO
252.029	0	L315	NaN	NaN	VERBALRESP_LOGO
255.598	0	L315	NaN	NaN	KEYRESP_LOGO
258.029	0	L117	1	2	STIM_LOGO
259.029	5	L117	1	2	RETENTION_LOGO
264.029	0	L117	NaN	NaN	VERBALRESP_LOGO
267.576	0	L117	NaN	NaN	KEYRESP_LOGO
270.029	0	L330	1	2	STIM_LOGO
271.029	5	L330	1	2	RETENTION_LOGO
276.029	0	L330	NaN	NaN	VERBALRESP_LOGO
280.097	0	L330	NaN	NaN	KEYRESP_LOGO
284.029	0	L217	0	1	STIM_LOGO
285.029	5	L217	0	1	RETENTION_LOGO
290.029	0	L217	NaN	NaN	VERBALRESP_LOGO
293.875	0	L217	NaN	NaN	KEYRESP_LOGO
303.029	0	L384	0	1	STIM_LOGO
304.029	5	L384	0	1	RETENTION_LOGO
309.029	0	L384	NaN	NaN	VERBALRESP_LOGO
312.842	0	L384	NaN	NaN	KEYRESP_LOGO
320.029	0	L347	1	2	STIM_LOGO
321.029	5	L347	1	2	RETENTION_LOGO
326.029	0	L347	NaN	NaN	VERBALRESP_LOGO
329.624	0	L347	NaN	NaN	KEYRESP_LOGO
333.029	0	L421	1	2	STIM_LOGO
334.029	5	L421	1	2	RETENTION_LOGO
339.029	0	L421	NaN	NaN	VERBALRESP_LOGO
342.922	0	L421	NaN	NaN	KEYRESP_LOGO
351.029	0	L267	1	2	STIM_LOGO
352.029	5	L267	1	2	RETENTION_LOGO
357.029	0	L267	NaN	NaN	VERBALRESP_LOGO
361.234	0	L267	NaN	NaN	KEYRESP_LOGO
364.029	0	L301	1	2	STIM_LOGO
365.029	5	L301	1	2	RETENTION_LOGO
370.029	0	L301	NaN	NaN	VERBALRESP_LOGO
374.56	0	L301	NaN	NaN	KEYRESP_LOGO
383.045	0	L389	1	2	STIM_LOGO
384.045	5	L389	1	2	RETENTION_LOGO
389.045	0	L389	NaN	NaN	VERBALRESP_LOGO
392.973	0	L389	NaN	NaN	KEYRESP_LOGO
402.062	0	L26	0	1	STIM_LOGO
403.062	5	L26	0	1	RETENTION_LOGO
408.062	0	L26	NaN	NaN	VERBALRESP_LOGO
411.812	0	L26	NaN	NaN	KEYRESP_LOGO
418.078	0	L348	1	2	STIM_LOGO
419.078	5	L348	1	2	RETENTION_LOGO
424.078	0	L348	NaN	NaN	VERBALRESP_LOGO
427.884	0	L348	NaN	NaN	KEYRESP_LOGO
436.095	0	L318	0	2	STIM_LOGO
437.095	5	L318	0	2	RETENTION_LOGO
442.095	0	L318	NaN	NaN	VERBALRESP_LOGO
445.916	0	L318	NaN	NaN	KEYRESP_LOGO
449.112	0	L341	1	2	STIM_LOGO
450.112	5	L341	1	2	RETENTION_LOGO
455.112	0	L341	NaN	NaN	VERBALRESP_LOGO
459.276	0	L341	NaN	NaN	KEYRESP_LOGO
464.112	0	L94	0	1	STIM_LOGO
465.111	5	L94	0	1	RETENTION_LOGO
470.111	0	L94	NaN	NaN	VERBALRESP_LOGO
473.857	0	L94	NaN	NaN	KEYRESP_LOGO
476.111	0	L43	1	2	STIM_LOGO
477.111	5	L43	1	2	RETENTION_LOGO
482.111	0	L43	NaN	NaN	VERBALRESP_LOGO
485.64	0	L43	NaN	NaN	KEYRESP_LOGO
490.111	0	L323	0	1	STIM_LOGO
491.111	5	L323	0	1	RETENTION_LOGO
496.111	0	L323	NaN	NaN	VERBALRESP_LOGO
499.716	0	L323	NaN	NaN	KEYRESP_LOGO
503.111	0	L207	0	1	STIM_LOGO
504.111	5	L207	0	1	RETENTION_LOGO
509.111	0	L207	NaN	NaN	VERBALRESP_LOGO
512.76	0	L207	NaN	NaN	KEYRESP_LOGO
518.111	0	L219	0	1	STIM_LOGO
519.111	5	L219	0	1	RETENTION_LOGO
524.111	0	L219	NaN	NaN	VERBALRESP_LOGO
527.746	0	L219	NaN	NaN	KEYRESP_LOGO
536.111	0	L81	0	1	STIM_LOGO
537.111	5	L81	0	1	RETENTION_LOGO
542.111	0	L81	NaN	NaN	VERBALRESP_LOGO
546.119	0	L81	NaN	NaN	KEYRESP_LOGO
552.111	0	L284	1	2	STIM_LOGO
553.111	5	L284	1	2	RETENTION_LOGO
558.111	0	L284	NaN	NaN	VERBALRESP_LOGO
561.951	0	L284	NaN	NaN	KEYRESP_LOGO
567.111	0	L237	0	1	STIM_LOGO
568.111	5	L237	0	1	RETENTION_LOGO
573.111	0	L237	NaN	NaN	VERBALRESP_LOGO
577.138	0	L237	NaN	NaN	KEYRESP_LOGO
580.111	0	L264	1	2	STIM_LOGO
581.111	5	L264	1	2	RETENTION_LOGO
586.111	0	L264	NaN	NaN	VERBALRESP_LOGO
589.849	0	L264	NaN	NaN	KEYRESP_LOGO
594.111	0	L35	0	1	STIM_LOGO
595.111	5	L35	0	1	RETENTION_LOGO
600.111	0	L35	NaN	NaN	VERBALRESP_LOGO
604.316	0	L35	NaN	NaN	KEYRESP_LOGO
609.111	0	L440	1	2	STIM_LOGO
610.111	5	L440	1	2	RETENTION_LOGO
615.111	0	L440	NaN	NaN	VERBALRESP_LOGO
618.827	0	L440	NaN	NaN	KEYRESP_LOGO
625.111	0	L286	1	2	STIM_LOGO
626.111	5	L286	1	2	RETENTION_LOGO
631.111	0	L286	NaN	NaN	VERBALRESP_LOGO
634.916	0	L286	NaN	NaN	KEYRESP_LOGO
637.111	0	L405	0	1	STIM_LOGO
638.111	5	L405	0	1	RETENTION_LOGO
643.111	0	L405	NaN	NaN	VERBALRESP_LOGO
646.678	0	L405	NaN	NaN	KEYRESP_LOGO
653.11	0	L110	0	1	STIM_LOGO
654.11	5	L110	0	1	RETENTION_LOGO
659.11	0	L110	NaN	NaN	VERBALRESP_LOGO
662.964	0	L110	NaN	NaN	KEYRESP_LOGO
669.11	0	L21	0	1	STIM_LOGO
670.11	5	L21	0	1	RETENTION_LOGO
675.11	0	L21	NaN	NaN	VERBALRESP_LOGO
679.021	0	L21	NaN	NaN	KEYRESP_LOGO
688.11	0	L261	1	2	STIM_LOGO
689.11	5	L261	1	2	RETENTION_LOGO
694.11	0	L261	NaN	NaN	VERBALRESP_LOGO
697.957	0	L261	NaN	NaN	KEYRESP_LOGO
701.11	0	L295	0	1	STIM_LOGO
702.11	5	L295	0	1	RETENTION_LOGO
707.11	0	L295	NaN	NaN	VERBALRESP_LOGO
710.803	0	L295	NaN	NaN	KEYRESP_LOGO
718.11	0	L8	1	2	STIM_LOGO
719.11	5	L8	1	2	RETENTION_LOGO
724.11	0	L8	NaN	NaN	VERBALRESP_LOGO
727.942	0	L8	NaN	NaN	KEYRESP_LOGO
735.11	0	L188	1	2	STIM_LOGO
736.11	5	L188	1	2	RETENTION_LOGO
741.11	0	L188	NaN	NaN	VERBALRESP_LOGO
744.872	0	L188	NaN	NaN	KEYRESP_LOGO
746.872	8	NaN	NaN	NaN	BREAK
756.11	0	L108	NaN	1	STIM_BRAND
757.11	5	L108	NaN	1	RETENTION_BRAND
762.742	0	L108	NaN	NaN	KEYRESP_BRAND
766.11	0	L246	NaN	2	STIM_BRAND
767.11	5	L246	NaN	2	RETENTION_BRAND
772.777	0	L246	NaN	NaN	KEYRESP_BRAND
776.11	0	L8	NaN	2	STIM_BRAND
777.11	5	L8	NaN	2	RETENTION_BRAND
782.679	0	L8	NaN	NaN	KEYRESP_BRAND
785.61	0	L43	NaN	2	STIM_BRAND
786.61	5	L43	NaN	2	RETENTION_BRAND
792.305	0	L43	NaN	NaN	KEYRESP_BRAND
795.11	0	L348	NaN	2	STIM_BRAND
796.11	5	L348	NaN	2	RETENTION_BRAND
801.834	0	L348	NaN	NaN	KEYRESP_BRAND
805.11	0	L21	NaN	2	STIM_BRAND
806.11	5	L21	NaN	2	RETENTION_BRAND
811.683	0	L21	NaN	NaN	KEYRESP_BRAND
815.11	0	L217	NaN	1	STIM_BRAND
816.11	5	L217	NaN	1	RETENTION_BRAND
821.811	0	L217	NaN	NaN	KEYRESP_BRAND
824.109	0	L347	NaN	2	STIM_BRAND
825.109	5	L347	NaN	2	RETENTION_BRAND
830.93	0	L347	NaN	NaN	KEYRESP_BRAND
833.609	0	L295	NaN	2	STIM_BRAND
834.609	5	L295	NaN	2	RETENTION_BRAND
840.321	0	L295	NaN	NaN	KEYRESP_BRAND
842.609	0	L323	NaN	1	STIM_BRAND
843.609	5	L323	NaN	1	RETENTION_BRAND
849.367	0	L323	NaN	NaN	KEYRESP_BRAND
852.109	0	L301	NaN	2	STIM_BRAND
853.109	5	L301	NaN	2	RETENTION_BRAND
858.865	0	L301	NaN	NaN	KEYRESP_BRAND
862.109	0	L286	NaN	2	STIM_BRAND
863.109	5	L286	NaN	2	RETENTION_BRAND
868.886	0	L286	NaN	NaN	KEYRESP_BRAND
872.109	0	L317	NaN	2	STIM_BRAND
873.109	5	L317	NaN	2	RETENTION_BRAND
878.647	0	L317	NaN	NaN	KEYRESP_BRAND
882.109	0	L440	NaN	2	STIM_BRAND
883.109	5	L440	NaN	2	RETENTION_BRAND
888.806	0	L440	NaN	NaN	KEYRESP_BRAND
891.609	0	L188	NaN	2	STIM_BRAND
892.609	5	L188	NaN	2	RETENTION_BRAND
898.361	0	L188	NaN	NaN	KEYRESP_BRAND
901.109	0	L264	NaN	2	STIM_BRAND
902.109	5	L264	NaN	2	RETENTION_BRAND
907.729	0	L264	NaN	NaN	KEYRESP_BRAND
911.109	0	L404	NaN	2	STIM_BRAND
912.109	5	L404	NaN	2	RETENTION_BRAND
918.075	0	L404	NaN	NaN	KEYRESP_BRAND
920.109	0	L315	NaN	1	STIM_BRAND
921.109	5	L315	NaN	1	RETENTION_BRAND
926.981	0	L315	NaN	NaN	KEYRESP_BRAND
929.609	0	L136	NaN	1	STIM_BRAND
930.609	5	L136	NaN	1	RETENTION_BRAND
936.172	0	L136	NaN	NaN	KEYRESP_BRAND
938.609	0	L103	NaN	2	STIM_BRAND
939.609	5	L103	NaN	2	RETENTION_BRAND
945.073	0	L103	NaN	NaN	KEYRESP_BRAND
947.609	0	L284	NaN	2	STIM_BRAND
948.609	5	L284	NaN	2	RETENTION_BRAND
954.299	0	L284	NaN	NaN	KEYRESP_BRAND
956.609	0	L252	NaN	2	STIM_BRAND
957.609	5	L252	NaN	2	RETENTION_BRAND
963.343	0	L252	NaN	NaN	KEYRESP_BRAND
966.609	0	L312	NaN	2	STIM_BRAND
967.609	5	L312	NaN	2	RETENTION_BRAND
973.309	0	L312	NaN	NaN	KEYRESP_BRAND
976.109	0	L85	NaN	1	STIM_BRAND
977.109	5	L85	NaN	1	RETENTION_BRAND
983.149	0	L85	NaN	NaN	KEYRESP_BRAND
985.109	0	L26	NaN	2	STIM_BRAND
986.109	5	L26	NaN	2	RETENTION_BRAND
991.817	0	L26	NaN	NaN	KEYRESP_BRAND
995.108	0	L110	NaN	1	STIM_BRAND
996.108	5	L110	NaN	1	RETENTION_BRAND
1001.824	0	L110	NaN	NaN	KEYRESP_BRAND
1005.108	0	L427	NaN	2	STIM_BRAND
1006.108	5	L427	NaN	2	RETENTION_BRAND
1011.923	0	L427	NaN	NaN	KEYRESP_BRAND
1015.108	0	L421	NaN	2	STIM_BRAND
1016.108	5	L421	NaN	2	RETENTION_BRAND
1021.726	0	L421	NaN	NaN	KEYRESP_BRAND
1025.108	0	L261	NaN	2	STIM_BRAND
1026.108	5	L261	NaN	2	RETENTION_BRAND
1031.86	0	L261	NaN	NaN	KEYRESP_BRAND
1034.608	0	L276	NaN	2	STIM_BRAND
1035.608	5	L276	NaN	2	RETENTION_BRAND
1041.147	0	L276	NaN	NaN	KEYRESP_BRAND
1043.608	0	L330	NaN	2	STIM_BRAND
1044.608	5	L330	NaN	2	RETENTION_BRAND
1050.432	0	L330	NaN	NaN	KEYRESP_BRAND
1052.608	0	L81	NaN	1	STIM_BRAND
1053.608	5	L81	NaN	1	RETENTION_BRAND
1059.316	0	L81	NaN	NaN	KEYRESP_BRAND
1061.608	0	L94	NaN	1	STIM_BRAND
1062.608	5	L94	NaN	1	RETENTION_BRAND
1068.278	0	L94	NaN	NaN	KEYRESP_BRAND
1071.608	0	L237	NaN	1	STIM_BRAND
1072.608	5	L237	NaN	1	RETENTION_BRAND
1078.226	0	L237	NaN	NaN	KEYRESP_BRAND
1080.608	0	L16	NaN	2	STIM_BRAND
1081.608	5	L16	NaN	2	RETENTION_BRAND
1087.089	0	L16	NaN	NaN	KEYRESP_BRAND
1090.108	0	L232	NaN	2	STIM_BRAND
1091.108	5	L232	NaN	2	RETENTION_BRAND
1096.838	0	L232	NaN	NaN	KEYRESP_BRAND
1099.608	0	L316	NaN	2	STIM_BRAND
1100.608	5	L316	NaN	2	RETENTION_BRAND
1106.359	0	L316	NaN	NaN	KEYRESP_BRAND
1108.608	0	L279	NaN	2	STIM_BRAND
1109.608	5	L279	NaN	2	RETENTION_BRAND
1115.133	0	L279	NaN	NaN	KEYRESP_BRAND
1118.108	0	L389	NaN	2	STIM_BRAND
1119.108	5	L389	NaN	2	RETENTION_BRAND
1124.728	0	L389	NaN	NaN	KEYRESP_BRAND
1127.108	0	L207	NaN	1	STIM_BRAND
1128.108	5	L207	NaN	1	RETENTION_BRAND
1133.885	0	L207	NaN	NaN	KEYRESP_BRAND
1136.608	0	L219	NaN	2	STIM_BRAND
1137.608	5	L219	NaN	2	RETENTION_BRAND
1143.191	0	L219	NaN	NaN	KEYRESP_BRAND
1146.108	0	L35	NaN	2	STIM_BRAND
1147.107	5	L35	NaN	2	RETENTION_BRAND
1152.751	0	L35	NaN	NaN	KEYRESP_BRAND
1155.108	0	L318	NaN	2	STIM_BRAND
1156.108	5	L318	NaN	2	RETENTION_BRAND
1161.729	0	L318	NaN	NaN	KEYRESP_BRAND
1164.107	0	L405	NaN	1	STIM_BRAND
1165.107	5	L405	NaN	1	RETENTION_BRAND
1170.93	0	L405	NaN	NaN	KEYRESP_BRAND
1173.607	0	L384	NaN	1	STIM_BRAND
1174.607	5	L384	NaN	1	RETENTION_BRAND
1180.387	0	L384	NaN	NaN	KEYRESP_BRAND
1182.607	0	L113	NaN	1	STIM_BRAND
1183.607	5	L113	NaN	1	RETENTION_BRAND
1189.17	0	L113	NaN	NaN	KEYRESP_BRAND
1192.607	0	L64	NaN	2	STIM_BRAND
1193.607	5	L64	NaN	2	RETENTION_BRAND
1199.253	0	L64	NaN	NaN	KEYRESP_BRAND
1202.607	0	L341	NaN	2	STIM_BRAND
1203.607	5	L341	NaN	2	RETENTION_BRAND
1209.335	0	L341	NaN	NaN	KEYRESP_BRAND
1212.607	0	L267	NaN	2	STIM_BRAND
1213.607	5	L267	NaN	2	RETENTION_BRAND
1219.319	0	L267	NaN	NaN	KEYRESP_BRAND
1222.44	0	L44	NaN	2	STIM_BRAND
1223.439	5	L44	NaN	2	RETENTION_BRAND
