onset	duration	stim_filename	verbal_resp	key_resp	event_type
2.022	0	L121	2	2	STIM_LOGO
3.022	5	L121	2	2	RETENTION_LOGO
8.022	0	L121	NaN	NaN	VERBALRESP_LOGO
11.773	0	L121	NaN	NaN	KEYRESP_LOGO
15.022	0	L111	2	2	STIM_LOGO
16.022	5	L111	2	2	RETENTION_LOGO
21.022	0	L111	NaN	NaN	VERBALRESP_LOGO
24.557	0	L111	NaN	NaN	KEYRESP_LOGO
29.022	0	L100	1	2	STIM_LOGO
30.022	5	L100	1	2	RETENTION_LOGO
35.022	0	L100	NaN	NaN	VERBALRESP_LOGO
38.601	0	L100	NaN	NaN	KEYRESP_LOGO
45.022	0	L185	1	2	STIM_LOGO
46.022	5	L185	1	2	RETENTION_LOGO
51.022	0	L185	NaN	NaN	VERBALRESP_LOGO
54.382	0	L185	NaN	NaN	KEYRESP_LOGO
57.022	0	L71	1	2	STIM_LOGO
58.022	5	L71	1	2	RETENTION_LOGO
63.022	0	L71	NaN	NaN	VERBALRESP_LOGO
66.446	0	L71	NaN	NaN	KEYRESP_LOGO
69.022	0	L5	1	2	STIM_LOGO
70.022	5	L5	1	2	RETENTION_LOGO
75.022	0	L5	NaN	NaN	VERBALRESP_LOGO
78.397	0	L5	NaN	NaN	KEYRESP_LOGO
88.023	0	L379	1	1	STIM_LOGO
89.023	5	L379	1	1	RETENTION_LOGO
94.023	0	L379	NaN	NaN	VERBALRESP_LOGO
97.453	0	L379	NaN	NaN	KEYRESP_LOGO
101.023	0	L240	1	2	STIM_LOGO
102.023	5	L240	1	2	RETENTION_LOGO
107.023	0	L240	NaN	NaN	VERBALRESP_LOGO
110.432	0	L240	NaN	NaN	KEYRESP_LOGO
118.023	0	L309	1	2	STIM_LOGO
119.023	5	L309	1	2	RETENTION_LOGO
124.023	0	L309	NaN	NaN	VERBALRESP_LOGO
127.359	0	L309	NaN	NaN	KEYRESP_LOGO
133.023	0	L181	1	2	STIM_LOGO
134.023	5	L181	1	2	RETENTION_LOGO
139.023	0	L181	NaN	NaN	VERBALRESP_LOGO
142.536	0	L181	NaN	NaN	KEYRESP_LOGO
151.023	0	L281	0	1	STIM_LOGO
152.023	5	L281	0	1	RETENTION_LOGO
157.023	0	L281	NaN	NaN	VERBALRESP_LOGO
160.405	0	L281	NaN	NaN	KEYRESP_LOGO
164.023	0	L221	0	1	STIM_LOGO
165.023	5	L221	0	1	RETENTION_LOGO
170.023	0	L221	NaN	NaN	VERBALRESP_LOGO
173.542	0	L221	NaN	NaN	KEYRESP_LOGO
178.023	0	L194	1	2	STIM_LOGO
179.023	5	L194	1	2	RETENTION_LOGO
184.024	0	L194	NaN	NaN	VERBALRESP_LOGO
187.38	0	L194	NaN	NaN	KEYRESP_LOGO
191.024	0	L65	1	2	STIM_LOGO
192.024	5	L65	1	2	RETENTION_LOGO
197.024	0	L65	NaN	NaN	VERBALRESP_LOGO
200.432	0	L65	NaN	NaN	KEYRESP_LOGO
207.024	0	L88	1	2	STIM_LOGO
208.024	5	L88	1	2	RETENTION_LOGO
213.024	0	L88	NaN	NaN	VERBALRESP_LOGO
216.424	0	L88	NaN	NaN	KEYRESP_LOGO
224.041	0	L258	1	2	STIM_LOGO
225.041	5	L258	1	2	RETENTION_LOGO
230.041	0	L258	NaN	NaN	VERBALRESP_LOGO
233.499	0	L258	NaN	NaN	KEYRESP_LOGO
236.057	0	L424	1	2	STIM_LOGO
237.057	5	L424	1	2	RETENTION_LOGO
242.058	0	L424	NaN	NaN	VERBALRESP_LOGO
245.436	0	L424	NaN	NaN	KEYRESP_LOGO
248.058	0	L399	1	2	STIM_LOGO
249.057	5	L399	1	2	RETENTION_LOGO
254.058	0	L399	NaN	NaN	VERBALRESP_LOGO
257.477	0	L399	NaN	NaN	KEYRESP_LOGO
264.058	0	L278	1	2	STIM_LOGO
265.058	5	L278	1	2	RETENTION_LOGO
270.058	0	L278	NaN	NaN	VERBALRESP_LOGO
273.462	0	L278	NaN	NaN	KEYRESP_LOGO
279.058	0	L92	1	2	STIM_LOGO
280.058	5	L92	1	2	RETENTION_LOGO
285.058	0	L92	NaN	NaN	VERBALRESP_LOGO
288.446	0	L92	NaN	NaN	KEYRESP_LOGO
291.058	0	L50	0	1	STIM_LOGO
292.058	5	L50	0	1	RETENTION_LOGO
297.058	0	L50	NaN	NaN	VERBALRESP_LOGO
301.009	0	L50	NaN	NaN	KEYRESP_LOGO
305.058	0	L418	1	2	STIM_LOGO
306.058	5	L418	1	2	RETENTION_LOGO
311.058	0	L418	NaN	NaN	VERBALRESP_LOGO
314.436	0	L418	NaN	NaN	KEYRESP_LOGO
324.058	0	L208	2	2	STIM_LOGO
325.058	5	L208	2	2	RETENTION_LOGO
330.058	0	L208	NaN	NaN	VERBALRESP_LOGO
333.428	0	L208	NaN	NaN	KEYRESP_LOGO
339.058	0	L412	1	2	STIM_LOGO
340.058	5	L412	1	2	RETENTION_LOGO
345.058	0	L412	NaN	NaN	VERBALRESP_LOGO
348.494	0	L412	NaN	NaN	KEYRESP_LOGO
352.059	0	L395	1	2	STIM_LOGO
353.059	5	L395	1	2	RETENTION_LOGO
358.059	0	L395	NaN	NaN	VERBALRESP_LOGO
361.387	0	L395	NaN	NaN	KEYRESP_LOGO
370.059	0	L291	1	1	STIM_LOGO
371.059	5	L291	1	1	RETENTION_LOGO
376.059	0	L291	NaN	NaN	VERBALRESP_LOGO
379.984	0	L291	NaN	NaN	KEYRESP_LOGO
383.059	0	L139	1	2	STIM_LOGO
384.059	5	L139	1	2	RETENTION_LOGO
389.059	0	L139	NaN	NaN	VERBALRESP_LOGO
392.456	0	L139	NaN	NaN	KEYRESP_LOGO
399.059	0	L135	1	2	STIM_LOGO
400.059	5	L135	1	2	RETENTION_LOGO
405.059	0	L135	NaN	NaN	VERBALRESP_LOGO
408.377	0	L135	NaN	NaN	KEYRESP_LOGO
411.059	0	L191	1	2	STIM_LOGO
412.059	5	L191	1	2	RETENTION_LOGO
417.059	0	L191	NaN	NaN	VERBALRESP_LOGO
420.45	0	L191	NaN	NaN	KEYRESP_LOGO
429.059	0	L51	1	1	STIM_LOGO
430.059	5	L51	1	1	RETENTION_LOGO
435.059	0	L51	NaN	NaN	VERBALRESP_LOGO
438.731	0	L51	NaN	NaN	KEYRESP_LOGO
444.059	0	L41	1	1	STIM_LOGO
445.059	5	L41	1	1	RETENTION_LOGO
450.06	0	L41	NaN	NaN	VERBALRESP_LOGO
453.401	0	L41	NaN	NaN	KEYRESP_LOGO
457.06	0	L156	1	2	STIM_LOGO
458.06	5	L156	1	2	RETENTION_LOGO
463.06	0	L156	NaN	NaN	VERBALRESP_LOGO
466.695	0	L156	NaN	NaN	KEYRESP_LOGO
471.06	0	L250	0	1	STIM_LOGO
472.06	5	L250	0	1	RETENTION_LOGO
477.06	0	L250	NaN	NaN	VERBALRESP_LOGO
480.441	0	L250	NaN	NaN	KEYRESP_LOGO
489.06	0	L311	1	2	STIM_LOGO
490.06	5	L311	1	2	RETENTION_LOGO
495.06	0	L311	NaN	NaN	VERBALRESP_LOGO
498.949	0	L311	NaN	NaN	KEYRESP_LOGO
508.06	0	L28	1	2	STIM_LOGO
509.06	5	L28	1	2	RETENTION_LOGO
514.06	0	L28	NaN	NaN	VERBALRESP_LOGO
517.426	0	L28	NaN	NaN	KEYRESP_LOGO
523.06	0	L310	0	1	STIM_LOGO
524.06	5	L310	0	1	RETENTION_LOGO
529.06	0	L310	NaN	NaN	VERBALRESP_LOGO
532.439	0	L310	NaN	NaN	KEYRESP_LOGO
538.06	0	L46	1	2	STIM_LOGO
539.06	5	L46	1	2	RETENTION_LOGO
544.06	0	L46	NaN	NaN	VERBALRESP_LOGO
547.433	0	L46	NaN	NaN	KEYRESP_LOGO
554.061	0	L157	1	2	STIM_LOGO
555.061	5	L157	1	2	RETENTION_LOGO
560.061	0	L157	NaN	NaN	VERBALRESP_LOGO
563.575	0	L157	NaN	NaN	KEYRESP_LOGO
571.061	0	L272	1	2	STIM_LOGO
572.061	5	L272	1	2	RETENTION_LOGO
577.061	0	L272	NaN	NaN	VERBALRESP_LOGO
580.397	0	L272	NaN	NaN	KEYRESP_LOGO
590.078	0	L314	1	2	STIM_LOGO
591.078	5	L314	1	2	RETENTION_LOGO
596.078	0	L314	NaN	NaN	VERBALRESP_LOGO
599.458	0	L314	NaN	NaN	KEYRESP_LOGO
602.094	0	L57	1	2	STIM_LOGO
603.094	5	L57	1	2	RETENTION_LOGO
608.095	0	L57	NaN	NaN	VERBALRESP_LOGO
611.469	0	L57	NaN	NaN	KEYRESP_LOGO
616.094	0	L426	1	2	STIM_LOGO
617.095	5	L426	1	2	RETENTION_LOGO
622.095	0	L426	NaN	NaN	VERBALRESP_LOGO
625.546	0	L426	NaN	NaN	KEYRESP_LOGO
633.095	0	L321	1	2	STIM_LOGO
634.095	5	L321	1	2	RETENTION_LOGO
639.095	0	L321	NaN	NaN	VERBALRESP_LOGO
642.57	0	L321	NaN	NaN	KEYRESP_LOGO
646.095	0	L300	1	2	STIM_LOGO
647.095	5	L300	1	2	RETENTION_LOGO
652.095	0	L300	NaN	NaN	VERBALRESP_LOGO
655.496	0	L300	NaN	NaN	KEYRESP_LOGO
663.095	0	L259	0	1	STIM_LOGO
664.095	5	L259	0	1	RETENTION_LOGO
669.095	0	L259	NaN	NaN	VERBALRESP_LOGO
672.57	0	L259	NaN	NaN	KEYRESP_LOGO
679.095	0	L143	0	2	STIM_LOGO
680.095	5	L143	0	2	RETENTION_LOGO
685.095	0	L143	NaN	NaN	VERBALRESP_LOGO
688.491	0	L143	NaN	NaN	KEYRESP_LOGO
692.095	0	L63	1	2	STIM_LOGO
693.095	5	L63	1	2	RETENTION_LOGO
698.095	0	L63	NaN	NaN	VERBALRESP_LOGO
701.419	0	L63	NaN	NaN	KEYRESP_LOGO
709.095	0	L339	1	2	STIM_LOGO
710.095	5	L339	1	2	RETENTION_LOGO
715.096	0	L339	NaN	NaN	VERBALRESP_LOGO
718.62	0	L339	NaN	NaN	KEYRESP_LOGO
721.096	0	L383	0	2	STIM_LOGO
722.096	5	L383	0	2	RETENTION_LOGO
727.096	0	L383	NaN	NaN	VERBALRESP_LOGO
730.461	0	L383	NaN	NaN	KEYRESP_LOGO
735.096	0	L25	1	2	STIM_LOGO
736.096	5	L25	1	2	RETENTION_LOGO
741.096	0	L25	NaN	NaN	VERBALRESP_LOGO
744.436	0	L25	NaN	NaN	KEYRESP_LOGO
746.436	8	NaN	NaN	NaN	BREAK
756.096	0	L121	NaN	2	STIM_BRAND
757.096	5	L121	NaN	2	RETENTION_BRAND
762.764	0	L121	NaN	NaN	KEYRESP_BRAND
766.096	0	L111	NaN	2	STIM_BRAND
767.096	5	L111	NaN	2	RETENTION_BRAND
772.425	0	L111	NaN	NaN	KEYRESP_BRAND
775.596	0	L92	NaN	2	STIM_BRAND
776.596	5	L92	NaN	2	RETENTION_BRAND
782.005	0	L92	NaN	NaN	KEYRESP_BRAND
784.596	0	L181	NaN	2	STIM_BRAND
785.596	5	L181	NaN	2	RETENTION_BRAND
791.076	0	L181	NaN	NaN	KEYRESP_BRAND
794.596	0	L191	NaN	2	STIM_BRAND
795.596	5	L191	NaN	2	RETENTION_BRAND
801.342	0	L191	NaN	NaN	KEYRESP_BRAND
803.596	0	L311	NaN	2	STIM_BRAND
804.596	5	L311	NaN	2	RETENTION_BRAND
810.042	0	L311	NaN	NaN	KEYRESP_BRAND
813.597	0	L278	NaN	2	STIM_BRAND
814.597	5	L278	NaN	2	RETENTION_BRAND
820.303	0	L278	NaN	NaN	KEYRESP_BRAND
823.097	0	L71	NaN	2	STIM_BRAND
824.097	5	L71	NaN	2	RETENTION_BRAND
829.543	0	L71	NaN	NaN	KEYRESP_BRAND
832.597	0	L135	NaN	2	STIM_BRAND
833.597	5	L135	NaN	2	RETENTION_BRAND
839.382	0	L135	NaN	NaN	KEYRESP_BRAND
842.097	0	L143	NaN	2	STIM_BRAND
843.097	5	L143	NaN	2	RETENTION_BRAND
848.589	0	L143	NaN	NaN	KEYRESP_BRAND
851.597	0	L412	NaN	2	STIM_BRAND
852.597	5	L412	NaN	2	RETENTION_BRAND
858.018	0	L412	NaN	NaN	KEYRESP_BRAND
860.597	0	L300	NaN	2	STIM_BRAND
861.597	5	L300	NaN	2	RETENTION_BRAND
867.001	0	L300	NaN	NaN	KEYRESP_BRAND
870.097	0	L41	NaN	2	STIM_BRAND
871.097	5	L41	NaN	2	RETENTION_BRAND
876.575	0	L41	NaN	NaN	KEYRESP_BRAND
879.597	0	L139	NaN	2	STIM_BRAND
880.597	5	L139	NaN	2	RETENTION_BRAND
886.016	0	L139	NaN	NaN	KEYRESP_BRAND
889.097	0	L395	NaN	2	STIM_BRAND
890.097	5	L395	NaN	2	RETENTION_BRAND
895.509	0	L395	NaN	NaN	KEYRESP_BRAND
899.097	0	L57	NaN	2	STIM_BRAND
900.097	5	L57	NaN	2	RETENTION_BRAND
905.581	0	L57	NaN	NaN	KEYRESP_BRAND
908.597	0	L426	NaN	2	STIM_BRAND
909.597	5	L426	NaN	2	RETENTION_BRAND
915.064	0	L426	NaN	NaN	KEYRESP_BRAND
918.098	0	L28	NaN	2	STIM_BRAND
919.098	5	L28	NaN	2	RETENTION_BRAND
924.561	0	L28	NaN	NaN	KEYRESP_BRAND
927.598	0	L50	NaN	1	STIM_BRAND
928.598	5	L50	NaN	1	RETENTION_BRAND
934.009	0	L50	NaN	NaN	KEYRESP_BRAND
936.598	0	L185	NaN	2	STIM_BRAND
937.598	5	L185	NaN	2	RETENTION_BRAND
943.062	0	L185	NaN	NaN	KEYRESP_BRAND
946.098	0	L25	NaN	2	STIM_BRAND
947.098	5	L25	NaN	2	RETENTION_BRAND
952.726	0	L25	NaN	NaN	KEYRESP_BRAND
955.098	0	L258	NaN	2	STIM_BRAND
956.098	5	L258	NaN	2	RETENTION_BRAND
961.695	0	L258	NaN	NaN	KEYRESP_BRAND
965.098	0	L65	NaN	2	STIM_BRAND
966.098	5	L65	NaN	2	RETENTION_BRAND
971.627	0	L65	NaN	NaN	KEYRESP_BRAND
975.098	0	L321	NaN	2	STIM_BRAND
976.098	5	L321	NaN	2	RETENTION_BRAND
981.512	0	L321	NaN	NaN	KEYRESP_BRAND
984.098	0	L310	NaN	2	STIM_BRAND
985.098	5	L310	NaN	2	RETENTION_BRAND
990.976	0	L310	NaN	NaN	KEYRESP_BRAND
993.098	0	L221	NaN	2	STIM_BRAND
994.098	5	L221	NaN	2	RETENTION_BRAND
999.446	0	L221	NaN	NaN	KEYRESP_BRAND
1003.098	0	L194	NaN	2	STIM_BRAND
1004.098	5	L194	NaN	2	RETENTION_BRAND
1009.483	0	L194	NaN	NaN	KEYRESP_BRAND
1012.098	0	L259	NaN	2	STIM_BRAND
1013.098	5	L259	NaN	2	RETENTION_BRAND
1018.444	0	L259	NaN	NaN	KEYRESP_BRAND
1022.099	0	L383	NaN	2	STIM_BRAND
1023.099	5	L383	NaN	2	RETENTION_BRAND
1028.582	0	L383	NaN	NaN	KEYRESP_BRAND
1031.099	0	L309	NaN	2	STIM_BRAND
1032.099	5	L309	NaN	2	RETENTION_BRAND
1037.432	0	L309	NaN	NaN	KEYRESP_BRAND
1040.099	0	L314	NaN	1	STIM_BRAND
1041.099	5	L314	NaN	1	RETENTION_BRAND
1046.703	0	L314	NaN	NaN	KEYRESP_BRAND
1050.099	0	L424	NaN	2	STIM_BRAND
1051.099	5	L424	NaN	2	RETENTION_BRAND
1056.493	0	L424	NaN	NaN	KEYRESP_BRAND
1059.599	0	L63	NaN	2	STIM_BRAND
1060.599	5	L63	NaN	2	RETENTION_BRAND
1065.981	0	L63	NaN	NaN	KEYRESP_BRAND
1068.599	0	L281	NaN	2	STIM_BRAND
1069.599	5	L281	NaN	2	RETENTION_BRAND
1075.077	0	L281	NaN	NaN	KEYRESP_BRAND
1078.599	0	L51	NaN	2	STIM_BRAND
1079.599	5	L51	NaN	2	RETENTION_BRAND
1085.417	0	L51	NaN	NaN	KEYRESP_BRAND
1088.099	0	L339	NaN	2	STIM_BRAND
1089.099	5	L339	NaN	2	RETENTION_BRAND
1094.529	0	L339	NaN	NaN	KEYRESP_BRAND
1098.099	0	L156	NaN	2	STIM_BRAND
1099.099	5	L156	NaN	2	RETENTION_BRAND
1104.738	0	L156	NaN	NaN	KEYRESP_BRAND
1107.099	0	L418	NaN	2	STIM_BRAND
1108.099	5	L418	NaN	2	RETENTION_BRAND
1113.54	0	L418	NaN	NaN	KEYRESP_BRAND
1117.099	0	L100	NaN	2	STIM_BRAND
1118.099	5	L100	NaN	2	RETENTION_BRAND
1124.388	0	L100	NaN	NaN	KEYRESP_BRAND
1127.1	0	L399	NaN	2	STIM_BRAND
1128.1	5	L399	NaN	2	RETENTION_BRAND
1133.467	0	L399	NaN	NaN	KEYRESP_BRAND
1137.1	0	L46	NaN	2	STIM_BRAND
1138.1	5	L46	NaN	2	RETENTION_BRAND
1143.453	0	L46	NaN	NaN	KEYRESP_BRAND
1146.1	0	L88	NaN	2	STIM_BRAND
1147.1	5	L88	NaN	2	RETENTION_BRAND
1152.917	0	L88	NaN	NaN	KEYRESP_BRAND
1155.6	0	L379	NaN	2	STIM_BRAND
1156.6	5	L379	NaN	2	RETENTION_BRAND
1162.91	0	L379	NaN	NaN	KEYRESP_BRAND
1165.6	0	L240	NaN	2	STIM_BRAND
1166.6	5	L240	NaN	2	RETENTION_BRAND
1171.99	0	L240	NaN	NaN	KEYRESP_BRAND
1174.6	0	L157	NaN	2	STIM_BRAND
1175.6	5	L157	NaN	2	RETENTION_BRAND
1181.127	0	L157	NaN	NaN	KEYRESP_BRAND
1184.1	0	L272	NaN	2	STIM_BRAND
1185.1	5	L272	NaN	2	RETENTION_BRAND
1190.684	0	L272	NaN	NaN	KEYRESP_BRAND
1193.1	0	L208	NaN	2	STIM_BRAND
1194.1	5	L208	NaN	2	RETENTION_BRAND
1200.167	0	L208	NaN	NaN	KEYRESP_BRAND
1202.1	0	L5	NaN	1	STIM_BRAND
1203.1	5	L5	NaN	1	RETENTION_BRAND
1208.894	0	L5	NaN	NaN	KEYRESP_BRAND
1212.1	0	L250	NaN	2	STIM_BRAND
1213.1	5	L250	NaN	2	RETENTION_BRAND
1218.923	0	L250	NaN	NaN	KEYRESP_BRAND
1222.1	0	L291	NaN	2	STIM_BRAND
1223.1	5	L291	NaN	2	RETENTION_BRAND
1228.558	0	L291	NaN	NaN	KEYRESP_BRAND
