onset	duration	stim_filename	verbal_resp	key_resp	event_type
2.028	0	L121	2	2	STIM_LOGO
3.028	5	L121	2	2	RETENTION_LOGO
8.028	0	L121	NaN	NaN	VERBALRESP_LOGO
12.51	0	L121	NaN	NaN	KEYRESP_LOGO
15.045	0	L111	2	1	STIM_LOGO
16.045	5	L111	2	1	RETENTION_LOGO
21.045	0	L111	NaN	NaN	VERBALRESP_LOGO
25.454	0	L111	NaN	NaN	KEYRESP_LOGO
34.061	0	L303	1	2	STIM_LOGO
35.061	5	L303	1	2	RETENTION_LOGO
40.061	0	L303	NaN	NaN	VERBALRESP_LOGO
44.019	0	L303	NaN	NaN	KEYRESP_LOGO
46.061	0	L262	1	2	STIM_LOGO
47.061	5	L262	1	2	RETENTION_LOGO
52.061	0	L262	NaN	NaN	VERBALRESP_LOGO
55.973	0	L262	NaN	NaN	KEYRESP_LOGO
60.061	0	L355	1	2	STIM_LOGO
61.061	5	L355	1	2	RETENTION_LOGO
66.061	0	L355	NaN	NaN	VERBALRESP_LOGO
70.215	0	L355	NaN	NaN	KEYRESP_LOGO
74.061	0	L158	0	1	STIM_LOGO
75.061	5	L158	0	1	RETENTION_LOGO
80.061	0	L158	NaN	NaN	VERBALRESP_LOGO
83.982	0	L158	NaN	NaN	KEYRESP_LOGO
90.061	0	L333	1	2	STIM_LOGO
91.061	5	L333	1	2	RETENTION_LOGO
96.061	0	L333	NaN	NaN	VERBALRESP_LOGO
99.975	0	L333	NaN	NaN	KEYRESP_LOGO
102.061	0	L437	1	2	STIM_LOGO
103.061	5	L437	1	2	RETENTION_LOGO
108.061	0	L437	NaN	NaN	VERBALRESP_LOGO
111.752	0	L437	NaN	NaN	KEYRESP_LOGO
114.061	0	L64	1	2	STIM_LOGO
115.061	5	L64	1	2	RETENTION_LOGO
120.061	0	L64	NaN	NaN	VERBALRESP_LOGO
123.933	0	L64	NaN	NaN	KEYRESP_LOGO
131.061	0	L190	1	2	STIM_LOGO
132.061	5	L190	1	2	RETENTION_LOGO
137.061	0	L190	NaN	NaN	VERBALRESP_LOGO
140.678	0	L190	NaN	NaN	KEYRESP_LOGO
144.061	0	L77	1	2	STIM_LOGO
145.061	5	L77	1	2	RETENTION_LOGO
150.061	0	L77	NaN	NaN	VERBALRESP_LOGO
153.858	0	L77	NaN	NaN	KEYRESP_LOGO
157.061	0	L420	1	2	STIM_LOGO
158.061	5	L420	1	2	RETENTION_LOGO
163.061	0	L420	NaN	NaN	VERBALRESP_LOGO
166.838	0	L420	NaN	NaN	KEYRESP_LOGO
172.061	0	L80	1	2	STIM_LOGO
173.061	5	L80	1	2	RETENTION_LOGO
178.061	0	L80	NaN	NaN	VERBALRESP_LOGO
181.781	0	L80	NaN	NaN	KEYRESP_LOGO
185.061	0	L45	1	1	STIM_LOGO
186.061	5	L45	1	1	RETENTION_LOGO
191.061	0	L45	NaN	NaN	VERBALRESP_LOGO
195.124	0	L45	NaN	NaN	KEYRESP_LOGO
200.061	0	L257	2	2	STIM_LOGO
201.061	5	L257	2	2	RETENTION_LOGO
206.061	0	L257	NaN	NaN	VERBALRESP_LOGO
209.607	0	L257	NaN	NaN	KEYRESP_LOGO
214.061	0	L50	3	2	STIM_LOGO
215.061	5	L50	3	2	RETENTION_LOGO
220.061	0	L50	NaN	NaN	VERBALRESP_LOGO
224.112	0	L50	NaN	NaN	KEYRESP_LOGO
226.061	0	L136	2	2	STIM_LOGO
227.061	5	L136	2	2	RETENTION_LOGO
232.061	0	L136	NaN	NaN	VERBALRESP_LOGO
235.785	0	L136	NaN	NaN	KEYRESP_LOGO
243.061	0	L35	1	2	STIM_LOGO
244.061	5	L35	1	2	RETENTION_LOGO
249.061	0	L35	NaN	NaN	VERBALRESP_LOGO
252.819	0	L35	NaN	NaN	KEYRESP_LOGO
258.078	0	L288	0	2	STIM_LOGO
259.078	5	L288	0	2	RETENTION_LOGO
264.078	0	L288	NaN	NaN	VERBALRESP_LOGO
267.931	0	L288	NaN	NaN	KEYRESP_LOGO
271.095	0	L113	1	2	STIM_LOGO
272.095	5	L113	1	2	RETENTION_LOGO
277.095	0	L113	NaN	NaN	VERBALRESP_LOGO
281.448	0	L113	NaN	NaN	KEYRESP_LOGO
289.095	0	L241	1	1	STIM_LOGO
290.095	5	L241	1	1	RETENTION_LOGO
295.094	0	L241	NaN	NaN	VERBALRESP_LOGO
298.744	0	L241	NaN	NaN	KEYRESP_LOGO
304.095	0	L389	1	2	STIM_LOGO
305.095	5	L389	1	2	RETENTION_LOGO
310.094	0	L389	NaN	NaN	VERBALRESP_LOGO
313.841	0	L389	NaN	NaN	KEYRESP_LOGO
317.095	0	L214	1	2	STIM_LOGO
318.095	5	L214	1	2	RETENTION_LOGO
323.095	0	L214	NaN	NaN	VERBALRESP_LOGO
326.731	0	L214	NaN	NaN	KEYRESP_LOGO
335.094	0	L342	1	2	STIM_LOGO
336.094	5	L342	1	2	RETENTION_LOGO
341.094	0	L342	NaN	NaN	VERBALRESP_LOGO
344.78	0	L342	NaN	NaN	KEYRESP_LOGO
348.094	0	L65	1	2	STIM_LOGO
349.094	5	L65	1	2	RETENTION_LOGO
354.094	0	L65	NaN	NaN	VERBALRESP_LOGO
357.754	0	L65	NaN	NaN	KEYRESP_LOGO
361.094	0	L341	0	1	STIM_LOGO
362.094	5	L341	0	1	RETENTION_LOGO
367.094	0	L341	NaN	NaN	VERBALRESP_LOGO
370.782	0	L341	NaN	NaN	KEYRESP_LOGO
377.094	0	L43	1	2	STIM_LOGO
378.094	5	L43	1	2	RETENTION_LOGO
383.094	0	L43	NaN	NaN	VERBALRESP_LOGO
386.796	0	L43	NaN	NaN	KEYRESP_LOGO
395.094	0	L310	1	2	STIM_LOGO
396.094	5	L310	1	2	RETENTION_LOGO
401.094	0	L310	NaN	NaN	VERBALRESP_LOGO
405.058	0	L310	NaN	NaN	KEYRESP_LOGO
414.094	0	L328	1	1	STIM_LOGO
415.094	5	L328	1	1	RETENTION_LOGO
420.094	0	L328	NaN	NaN	VERBALRESP_LOGO
424.224	0	L328	NaN	NaN	KEYRESP_LOGO
428.094	0	L294	1	2	STIM_LOGO
429.094	5	L294	1	2	RETENTION_LOGO
434.094	0	L294	NaN	NaN	VERBALRESP_LOGO
437.814	0	L294	NaN	NaN	KEYRESP_LOGO
443.094	0	L291	1	2	STIM_LOGO
444.094	5	L291	1	2	RETENTION_LOGO
449.094	0	L291	NaN	NaN	VERBALRESP_LOGO
452.792	0	L291	NaN	NaN	KEYRESP_LOGO
459.094	0	L278	1	2	STIM_LOGO
460.094	5	L278	1	2	RETENTION_LOGO
465.094	0	L278	NaN	NaN	VERBALRESP_LOGO
468.705	0	L278	NaN	NaN	KEYRESP_LOGO
477.094	0	L404	1	2	STIM_LOGO
478.094	5	L404	1	2	RETENTION_LOGO
483.094	0	L404	NaN	NaN	VERBALRESP_LOGO
486.56	0	L404	NaN	NaN	KEYRESP_LOGO
489.094	0	L99	1	2	STIM_LOGO
490.094	5	L99	1	2	RETENTION_LOGO
495.094	0	L99	NaN	NaN	VERBALRESP_LOGO
498.661	0	L99	NaN	NaN	KEYRESP_LOGO
503.094	0	L329	1	2	STIM_LOGO
504.094	5	L329	1	2	RETENTION_LOGO
509.094	0	L329	NaN	NaN	VERBALRESP_LOGO
512.717	0	L329	NaN	NaN	KEYRESP_LOGO
522.094	0	L375	1	2	STIM_LOGO
523.094	5	L375	1	2	RETENTION_LOGO
528.094	0	L375	NaN	NaN	VERBALRESP_LOGO
531.984	0	L375	NaN	NaN	KEYRESP_LOGO
535.094	0	L314	1	2	STIM_LOGO
536.094	5	L314	1	2	RETENTION_LOGO
541.094	0	L314	NaN	NaN	VERBALRESP_LOGO
544.845	0	L314	NaN	NaN	KEYRESP_LOGO
550.094	0	L415	1	1	STIM_LOGO
551.094	5	L415	1	1	RETENTION_LOGO
556.094	0	L415	NaN	NaN	VERBALRESP_LOGO
559.58	0	L415	NaN	NaN	KEYRESP_LOGO
562.094	0	L309	1	2	STIM_LOGO
563.094	5	L309	1	2	RETENTION_LOGO
568.094	0	L309	NaN	NaN	VERBALRESP_LOGO
571.543	0	L309	NaN	NaN	KEYRESP_LOGO
574.094	0	L188	1	2	STIM_LOGO
575.094	5	L188	1	2	RETENTION_LOGO
580.094	0	L188	NaN	NaN	VERBALRESP_LOGO
583.751	0	L188	NaN	NaN	KEYRESP_LOGO
591.094	0	L173	1	2	STIM_LOGO
592.094	5	L173	1	2	RETENTION_LOGO
597.094	0	L173	NaN	NaN	VERBALRESP_LOGO
601.049	0	L173	NaN	NaN	KEYRESP_LOGO
610.094	0	L417	1	2	STIM_LOGO
611.094	5	L417	1	2	RETENTION_LOGO
616.094	0	L417	NaN	NaN	VERBALRESP_LOGO
619.498	0	L417	NaN	NaN	KEYRESP_LOGO
626.094	0	L271	1	1	STIM_LOGO
627.094	5	L271	1	1	RETENTION_LOGO
632.094	0	L271	NaN	NaN	VERBALRESP_LOGO
635.904	0	L271	NaN	NaN	KEYRESP_LOGO
640.094	0	L26	1	2	STIM_LOGO
641.094	5	L26	1	2	RETENTION_LOGO
646.094	0	L26	NaN	NaN	VERBALRESP_LOGO
649.972	0	L26	NaN	NaN	KEYRESP_LOGO
652.094	0	L412	1	2	STIM_LOGO
653.094	5	L412	1	2	RETENTION_LOGO
658.094	0	L412	NaN	NaN	VERBALRESP_LOGO
661.657	0	L412	NaN	NaN	KEYRESP_LOGO
668.094	0	L97	1	2	STIM_LOGO
669.094	5	L97	1	2	RETENTION_LOGO
674.094	0	L97	NaN	NaN	VERBALRESP_LOGO
677.559	0	L97	NaN	NaN	KEYRESP_LOGO
685.111	0	L284	1	2	STIM_LOGO
686.111	5	L284	1	2	RETENTION_LOGO
691.111	0	L284	NaN	NaN	VERBALRESP_LOGO
694.934	0	L284	NaN	NaN	KEYRESP_LOGO
701.127	0	L268	1	1	STIM_LOGO
702.127	5	L268	1	1	RETENTION_LOGO
707.127	0	L268	NaN	NaN	VERBALRESP_LOGO
711.215	0	L268	NaN	NaN	KEYRESP_LOGO
718.127	0	L432	1	1	STIM_LOGO
719.127	5	L432	1	1	RETENTION_LOGO
724.127	0	L432	NaN	NaN	VERBALRESP_LOGO
727.773	0	L432	NaN	NaN	KEYRESP_LOGO
735.127	0	L426	1	2	STIM_LOGO
736.127	5	L426	1	2	RETENTION_LOGO
741.127	0	L426	NaN	NaN	VERBALRESP_LOGO
744.818	0	L426	NaN	NaN	KEYRESP_LOGO
746.818	8	NaN	NaN	NaN	BREAK
756.127	0	L121	NaN	2	STIM_BRAND
757.127	5	L121	NaN	2	RETENTION_BRAND
763.033	0	L121	NaN	NaN	KEYRESP_BRAND
766.127	0	L111	NaN	2	STIM_BRAND
767.127	5	L111	NaN	2	RETENTION_BRAND
773.325	0	L111	NaN	NaN	KEYRESP_BRAND
775.127	0	L77	NaN	2	STIM_BRAND
776.127	5	L77	NaN	2	RETENTION_BRAND
782.071	0	L77	NaN	NaN	KEYRESP_BRAND
784.627	0	L426	NaN	2	STIM_BRAND
785.627	5	L426	NaN	2	RETENTION_BRAND
791.258	0	L426	NaN	NaN	KEYRESP_BRAND
793.627	0	L310	NaN	2	STIM_BRAND
794.627	5	L310	NaN	2	RETENTION_BRAND
800.517	0	L310	NaN	NaN	KEYRESP_BRAND
803.627	0	L437	NaN	2	STIM_BRAND
804.627	5	L437	NaN	2	RETENTION_BRAND
810.153	0	L437	NaN	NaN	KEYRESP_BRAND
813.627	0	L158	NaN	1	STIM_BRAND
814.627	5	L158	NaN	1	RETENTION_BRAND
820.225	0	L158	NaN	NaN	KEYRESP_BRAND
823.127	0	L294	NaN	2	STIM_BRAND
824.127	5	L294	NaN	2	RETENTION_BRAND
829.846	0	L294	NaN	NaN	KEYRESP_BRAND
832.627	0	L214	NaN	2	STIM_BRAND
833.627	5	L214	NaN	2	RETENTION_BRAND
839.251	0	L214	NaN	NaN	KEYRESP_BRAND
842.627	0	L241	NaN	1	STIM_BRAND
843.627	5	L241	NaN	1	RETENTION_BRAND
849.127	0	L241	NaN	NaN	KEYRESP_BRAND
852.627	0	L291	NaN	2	STIM_BRAND
853.627	5	L291	NaN	2	RETENTION_BRAND
859.297	0	L291	NaN	NaN	KEYRESP_BRAND
861.627	0	L415	NaN	1	STIM_BRAND
862.627	5	L415	NaN	1	RETENTION_BRAND
868.294	0	L415	NaN	NaN	KEYRESP_BRAND
870.627	0	L257	NaN	1	STIM_BRAND
871.627	5	L257	NaN	1	RETENTION_BRAND
877.083	0	L257	NaN	NaN	KEYRESP_BRAND
879.627	0	L309	NaN	2	STIM_BRAND
880.627	5	L309	NaN	2	RETENTION_BRAND
886.295	0	L309	NaN	NaN	KEYRESP_BRAND
889.627	0	L404	NaN	2	STIM_BRAND
890.627	5	L404	NaN	2	RETENTION_BRAND
896.319	0	L404	NaN	NaN	KEYRESP_BRAND
899.627	0	L113	NaN	2	STIM_BRAND
900.627	5	L113	NaN	2	RETENTION_BRAND
906.434	0	L113	NaN	NaN	KEYRESP_BRAND
909.627	0	L26	NaN	2	STIM_BRAND
910.627	5	L26	NaN	2	RETENTION_BRAND
916.295	0	L26	NaN	NaN	KEYRESP_BRAND
919.127	0	L271	NaN	1	STIM_BRAND
920.127	5	L271	NaN	1	RETENTION_BRAND
925.669	0	L271	NaN	NaN	KEYRESP_BRAND
928.127	0	L375	NaN	2	STIM_BRAND
929.127	5	L375	NaN	2	RETENTION_BRAND
934.614	0	L375	NaN	NaN	KEYRESP_BRAND
937.627	0	L173	NaN	2	STIM_BRAND
938.627	5	L173	NaN	2	RETENTION_BRAND
944.317	0	L173	NaN	NaN	KEYRESP_BRAND
946.627	0	L412	NaN	2	STIM_BRAND
947.627	5	L412	NaN	2	RETENTION_BRAND
953.414	0	L412	NaN	NaN	KEYRESP_BRAND
956.627	0	L268	NaN	1	STIM_BRAND
957.627	5	L268	NaN	1	RETENTION_BRAND
963.147	0	L268	NaN	NaN	KEYRESP_BRAND
966.627	0	L284	NaN	2	STIM_BRAND
967.627	5	L284	NaN	2	RETENTION_BRAND
973.262	0	L284	NaN	NaN	KEYRESP_BRAND
975.627	0	L432	NaN	1	STIM_BRAND
976.627	5	L432	NaN	1	RETENTION_BRAND
982.319	0	L432	NaN	NaN	KEYRESP_BRAND
984.627	0	L262	NaN	2	STIM_BRAND
985.627	5	L262	NaN	2	RETENTION_BRAND
991.231	0	L262	NaN	NaN	KEYRESP_BRAND
994.127	0	L190	NaN	2	STIM_BRAND
995.127	5	L190	NaN	2	RETENTION_BRAND
1000.896	0	L190	NaN	NaN	KEYRESP_BRAND
1004.127	0	L43	NaN	2	STIM_BRAND
1005.127	5	L43	NaN	2	RETENTION_BRAND
1010.858	0	L43	NaN	NaN	KEYRESP_BRAND
1013.127	0	L278	NaN	2	STIM_BRAND
1014.127	5	L278	NaN	2	RETENTION_BRAND
1019.728	0	L278	NaN	NaN	KEYRESP_BRAND
1023.127	0	L420	NaN	2	STIM_BRAND
1024.127	5	L420	NaN	2	RETENTION_BRAND
1029.979	0	L420	NaN	NaN	KEYRESP_BRAND
1033.127	0	L136	NaN	1	STIM_BRAND
1034.127	5	L136	NaN	1	RETENTION_BRAND
1039.878	0	L136	NaN	NaN	KEYRESP_BRAND
1042.627	0	L97	NaN	2	STIM_BRAND
1043.627	5	L97	NaN	2	RETENTION_BRAND
1049.646	0	L97	NaN	NaN	KEYRESP_BRAND
1052.127	0	L328	NaN	2	STIM_BRAND
1053.127	5	L328	NaN	2	RETENTION_BRAND
1058.674	0	L328	NaN	NaN	KEYRESP_BRAND
1061.127	0	L35	NaN	2	STIM_BRAND
1062.127	5	L35	NaN	2	RETENTION_BRAND
1067.858	0	L35	NaN	NaN	KEYRESP_BRAND
1070.627	0	L329	NaN	2	STIM_BRAND
1071.627	5	L329	NaN	2	RETENTION_BRAND
1077.138	0	L329	NaN	NaN	KEYRESP_BRAND
1080.127	0	L333	NaN	2	STIM_BRAND
1081.127	5	L333	NaN	2	RETENTION_BRAND
1087.219	0	L333	NaN	NaN	KEYRESP_BRAND
1089.127	0	L50	NaN	1	STIM_BRAND
1090.127	5	L50	NaN	1	RETENTION_BRAND
1095.584	0	L50	NaN	NaN	KEYRESP_BRAND
1099.127	0	L314	NaN	2	STIM_BRAND
1100.127	5	L314	NaN	2	RETENTION_BRAND
1105.606	0	L314	NaN	NaN	KEYRESP_BRAND
1108.627	0	L417	NaN	2	STIM_BRAND
1109.627	5	L417	NaN	2	RETENTION_BRAND
1115.453	0	L417	NaN	NaN	KEYRESP_BRAND
1117.627	0	L45	NaN	2	STIM_BRAND
1118.627	5	L45	NaN	2	RETENTION_BRAND
1124.167	0	L45	NaN	NaN	KEYRESP_BRAND
1127.127	0	L288	NaN	1	STIM_BRAND
1128.127	5	L288	NaN	1	RETENTION_BRAND
1133.801	0	L288	NaN	NaN	KEYRESP_BRAND
1136.627	0	L341	NaN	2	STIM_BRAND
1137.627	5	L341	NaN	2	RETENTION_BRAND
1143.273	0	L341	NaN	NaN	KEYRESP_BRAND
1146.627	0	L389	NaN	2	STIM_BRAND
1147.627	5	L389	NaN	2	RETENTION_BRAND
1153.142	0	L389	NaN	NaN	KEYRESP_BRAND
1156.127	0	L355	NaN	2	STIM_BRAND
1157.127	5	L355	NaN	2	RETENTION_BRAND
1162.665	0	L355	NaN	NaN	KEYRESP_BRAND
1166.127	0	L188	NaN	2	STIM_BRAND
1167.127	5	L188	NaN	2	RETENTION_BRAND
1172.859	0	L188	NaN	NaN	KEYRESP_BRAND
1175.627	0	L342	NaN	2	STIM_BRAND
1176.627	5	L342	NaN	2	RETENTION_BRAND
1182.16	0	L342	NaN	NaN	KEYRESP_BRAND
1184.627	0	L65	NaN	2	STIM_BRAND
1185.627	5	L65	NaN	2	RETENTION_BRAND
1191.192	0	L65	NaN	NaN	KEYRESP_BRAND
1194.127	0	L64	NaN	2	STIM_BRAND
1195.127	5	L64	NaN	2	RETENTION_BRAND
1200.791	0	L64	NaN	NaN	KEYRESP_BRAND
1203.127	0	L303	NaN	1	STIM_BRAND
1204.127	5	L303	NaN	1	RETENTION_BRAND
1209.827	0	L303	NaN	NaN	KEYRESP_BRAND
1213.127	0	L80	NaN	2	STIM_BRAND
1214.127	5	L80	NaN	2	RETENTION_BRAND
1219.743	0	L80	NaN	NaN	KEYRESP_BRAND
1222.127	0	L99	NaN	1	STIM_BRAND
1223.127	5	L99	NaN	1	RETENTION_BRAND
1228.664	0	L99	NaN	NaN	KEYRESP_BRAND
