onset	duration	stim_filename	verbal_resp	key_resp	event_type
2.043	0	L205	2	2	STIM_LOGO
3.043	5	L205	2	2	RETENTION_LOGO
8.043	0	L205	NaN	NaN	VERBALRESP_LOGO
11.468	0	L205	NaN	NaN	KEYRESP_LOGO
15.043	0	L2	2	2	STIM_LOGO
16.043	5	L2	2	2	RETENTION_LOGO
21.043	0	L2	NaN	NaN	VERBALRESP_LOGO
24.528	0	L2	NaN	NaN	KEYRESP_LOGO
32.043	0	L238	0	2	STIM_LOGO
33.043	5	L238	0	2	RETENTION_LOGO
38.043	0	L238	NaN	NaN	VERBALRESP_LOGO
41.59	0	L238	NaN	NaN	KEYRESP_LOGO
47.043	0	L113	1	2	STIM_LOGO
48.043	5	L113	1	2	RETENTION_LOGO
53.043	0	L113	NaN	NaN	VERBALRESP_LOGO
56.494	0	L113	NaN	NaN	KEYRESP_LOGO
62.043	0	L139	0	2	STIM_LOGO
63.043	5	L139	0	2	RETENTION_LOGO
68.043	0	L139	NaN	NaN	VERBALRESP_LOGO
71.494	0	L139	NaN	NaN	KEYRESP_LOGO
81.043	0	L407	1	2	STIM_LOGO
82.043	5	L407	1	2	RETENTION_LOGO
87.043	0	L407	NaN	NaN	VERBALRESP_LOGO
90.545	0	L407	NaN	NaN	KEYRESP_LOGO
99.043	0	L379	0	2	STIM_LOGO
100.043	5	L379	0	2	RETENTION_LOGO
105.043	0	L379	NaN	NaN	VERBALRESP_LOGO
108.96	0	L379	NaN	NaN	KEYRESP_LOGO
112.043	0	L33	1	2	STIM_LOGO
113.043	5	L33	1	2	RETENTION_LOGO
118.043	0	L33	NaN	NaN	VERBALRESP_LOGO
121.878	0	L33	NaN	NaN	KEYRESP_LOGO
130.06	0	L418	1	2	STIM_LOGO
131.06	5	L418	1	2	RETENTION_LOGO
136.06	0	L418	NaN	NaN	VERBALRESP_LOGO
139.989	0	L418	NaN	NaN	KEYRESP_LOGO
143.077	0	L301	1	2	STIM_LOGO
144.077	5	L301	1	2	RETENTION_LOGO
149.077	0	L301	NaN	NaN	VERBALRESP_LOGO
153.841	0	L301	NaN	NaN	KEYRESP_LOGO
157.077	0	L237	0	2	STIM_LOGO
158.077	5	L237	0	2	RETENTION_LOGO
163.077	0	L237	NaN	NaN	VERBALRESP_LOGO
167.254	0	L237	NaN	NaN	KEYRESP_LOGO
173.077	0	L422	0	2	STIM_LOGO
174.077	5	L422	0	2	RETENTION_LOGO
179.077	0	L422	NaN	NaN	VERBALRESP_LOGO
182.698	0	L422	NaN	NaN	KEYRESP_LOGO
187.077	0	L318	1	2	STIM_LOGO
188.077	5	L318	1	2	RETENTION_LOGO
193.077	0	L318	NaN	NaN	VERBALRESP_LOGO
196.884	0	L318	NaN	NaN	KEYRESP_LOGO
203.077	0	L22	1	2	STIM_LOGO
204.077	5	L22	1	2	RETENTION_LOGO
209.077	0	L22	NaN	NaN	VERBALRESP_LOGO
212.874	0	L22	NaN	NaN	KEYRESP_LOGO
220.077	0	L219	0	2	STIM_LOGO
221.077	5	L219	0	2	RETENTION_LOGO
226.077	0	L219	NaN	NaN	VERBALRESP_LOGO
229.648	0	L219	NaN	NaN	KEYRESP_LOGO
232.077	0	L433	1	2	STIM_LOGO
233.077	5	L433	1	2	RETENTION_LOGO
238.077	0	L433	NaN	NaN	VERBALRESP_LOGO
241.539	0	L433	NaN	NaN	KEYRESP_LOGO
248.077	0	L347	1	2	STIM_LOGO
249.077	5	L347	1	2	RETENTION_LOGO
254.077	0	L347	NaN	NaN	VERBALRESP_LOGO
257.641	0	L347	NaN	NaN	KEYRESP_LOGO
261.077	0	L384	0	2	STIM_LOGO
262.077	5	L384	0	2	RETENTION_LOGO
267.077	0	L384	NaN	NaN	VERBALRESP_LOGO
270.585	0	L384	NaN	NaN	KEYRESP_LOGO
273.077	0	L267	1	2	STIM_LOGO
274.077	5	L267	1	2	RETENTION_LOGO
279.077	0	L267	NaN	NaN	VERBALRESP_LOGO
282.686	0	L267	NaN	NaN	KEYRESP_LOGO
286.077	0	L144	1	2	STIM_LOGO
287.077	5	L144	1	2	RETENTION_LOGO
292.077	0	L144	NaN	NaN	VERBALRESP_LOGO
295.812	0	L144	NaN	NaN	KEYRESP_LOGO
302.077	0	L25	1	2	STIM_LOGO
303.077	5	L25	1	2	RETENTION_LOGO
308.077	0	L25	NaN	NaN	VERBALRESP_LOGO
311.737	0	L25	NaN	NaN	KEYRESP_LOGO
316.077	0	L227	1	2	STIM_LOGO
317.077	5	L227	1	2	RETENTION_LOGO
322.077	0	L227	NaN	NaN	VERBALRESP_LOGO
325.823	0	L227	NaN	NaN	KEYRESP_LOGO
335.077	0	L363	1	2	STIM_LOGO
336.077	5	L363	1	2	RETENTION_LOGO
341.077	0	L363	NaN	NaN	VERBALRESP_LOGO
344.565	0	L363	NaN	NaN	KEYRESP_LOGO
347.077	0	L180	1	2	STIM_LOGO
348.077	5	L180	1	2	RETENTION_LOGO
353.077	0	L180	NaN	NaN	VERBALRESP_LOGO
356.535	0	L180	NaN	NaN	KEYRESP_LOGO
364.077	0	L217	0	2	STIM_LOGO
365.077	5	L217	0	2	RETENTION_LOGO
370.077	0	L217	NaN	NaN	VERBALRESP_LOGO
373.494	0	L217	NaN	NaN	KEYRESP_LOGO
376.077	0	L173	0	2	STIM_LOGO
377.077	5	L173	0	2	RETENTION_LOGO
382.078	0	L173	NaN	NaN	VERBALRESP_LOGO
385.635	0	L173	NaN	NaN	KEYRESP_LOGO
388.078	0	L274	1	2	STIM_LOGO
389.078	5	L274	1	2	RETENTION_LOGO
394.077	0	L274	NaN	NaN	VERBALRESP_LOGO
397.743	0	L274	NaN	NaN	KEYRESP_LOGO
401.078	0	L16	1	2	STIM_LOGO
402.078	5	L16	1	2	RETENTION_LOGO
407.078	0	L16	NaN	NaN	VERBALRESP_LOGO
410.668	0	L16	NaN	NaN	KEYRESP_LOGO
420.078	0	L161	1	2	STIM_LOGO
421.078	5	L161	1	2	RETENTION_LOGO
426.078	0	L161	NaN	NaN	VERBALRESP_LOGO
429.807	0	L161	NaN	NaN	KEYRESP_LOGO
434.078	0	L218	1	2	STIM_LOGO
435.078	5	L218	1	2	RETENTION_LOGO
440.078	0	L218	NaN	NaN	VERBALRESP_LOGO
443.862	0	L218	NaN	NaN	KEYRESP_LOGO
448.078	0	L72	1	1	STIM_LOGO
449.078	5	L72	1	1	RETENTION_LOGO
454.078	0	L72	NaN	NaN	VERBALRESP_LOGO
457.572	0	L72	NaN	NaN	KEYRESP_LOGO
463.078	0	L5	0	1	STIM_LOGO
464.078	5	L5	0	1	RETENTION_LOGO
469.078	0	L5	NaN	NaN	VERBALRESP_LOGO
472.5	0	L5	NaN	NaN	KEYRESP_LOGO
482.078	0	L324	1	2	STIM_LOGO
483.078	5	L324	1	2	RETENTION_LOGO
488.078	0	L324	NaN	NaN	VERBALRESP_LOGO
492.015	0	L324	NaN	NaN	KEYRESP_LOGO
497.078	0	L230	1	2	STIM_LOGO
498.078	5	L230	1	2	RETENTION_LOGO
503.078	0	L230	NaN	NaN	VERBALRESP_LOGO
507.037	0	L230	NaN	NaN	KEYRESP_LOGO
511.095	0	L289	1	2	STIM_LOGO
512.095	5	L289	1	2	RETENTION_LOGO
517.095	0	L289	NaN	NaN	VERBALRESP_LOGO
520.779	0	L289	NaN	NaN	KEYRESP_LOGO
529.111	0	L279	1	2	STIM_LOGO
530.111	5	L279	1	2	RETENTION_LOGO
535.111	0	L279	NaN	NaN	VERBALRESP_LOGO
538.774	0	L279	NaN	NaN	KEYRESP_LOGO
542.111	0	L100	1	2	STIM_LOGO
543.111	5	L100	1	2	RETENTION_LOGO
548.111	0	L100	NaN	NaN	VERBALRESP_LOGO
551.653	0	L100	NaN	NaN	KEYRESP_LOGO
554.111	0	L413	0	2	STIM_LOGO
555.111	5	L413	0	2	RETENTION_LOGO
560.112	0	L413	NaN	NaN	VERBALRESP_LOGO
563.596	0	L413	NaN	NaN	KEYRESP_LOGO
570.111	0	L170	1	1	STIM_LOGO
571.112	5	L170	1	1	RETENTION_LOGO
576.112	0	L170	NaN	NaN	VERBALRESP_LOGO
580.883	0	L170	NaN	NaN	KEYRESP_LOGO
582.112	0	L103	0	1	STIM_LOGO
583.112	5	L103	0	1	RETENTION_LOGO
588.112	0	L103	NaN	NaN	VERBALRESP_LOGO
591.546	0	L103	NaN	NaN	KEYRESP_LOGO
594.112	0	L119	1	1	STIM_LOGO
595.112	5	L119	1	1	RETENTION_LOGO
600.112	0	L119	NaN	NaN	VERBALRESP_LOGO
604.504	0	L119	NaN	NaN	KEYRESP_LOGO
610.112	0	L153	0	2	STIM_LOGO
611.112	5	L153	0	2	RETENTION_LOGO
616.112	0	L153	NaN	NaN	VERBALRESP_LOGO
619.817	0	L153	NaN	NaN	KEYRESP_LOGO
627.112	0	L312	0	2	STIM_LOGO
628.112	5	L312	0	2	RETENTION_LOGO
633.112	0	L312	NaN	NaN	VERBALRESP_LOGO
637.324	0	L312	NaN	NaN	KEYRESP_LOGO
645.112	0	L87	1	2	STIM_LOGO
646.112	5	L87	1	2	RETENTION_LOGO
651.112	0	L87	NaN	NaN	VERBALRESP_LOGO
654.868	0	L87	NaN	NaN	KEYRESP_LOGO
658.112	0	L79	1	2	STIM_LOGO
659.112	5	L79	1	2	RETENTION_LOGO
664.112	0	L79	NaN	NaN	VERBALRESP_LOGO
667.713	0	L79	NaN	NaN	KEYRESP_LOGO
675.112	0	L39	1	2	STIM_LOGO
676.112	5	L39	1	2	RETENTION_LOGO
681.112	0	L39	NaN	NaN	VERBALRESP_LOGO
684.874	0	L39	NaN	NaN	KEYRESP_LOGO
692.112	0	L147	1	2	STIM_LOGO
693.112	5	L147	1	2	RETENTION_LOGO
698.112	0	L147	NaN	NaN	VERBALRESP_LOGO
701.585	0	L147	NaN	NaN	KEYRESP_LOGO
705.112	0	L207	1	2	STIM_LOGO
706.112	5	L207	1	2	RETENTION_LOGO
711.112	0	L207	NaN	NaN	VERBALRESP_LOGO
714.523	0	L207	NaN	NaN	KEYRESP_LOGO
720.112	0	L264	1	2	STIM_LOGO
721.112	5	L264	1	2	RETENTION_LOGO
726.112	0	L264	NaN	NaN	VERBALRESP_LOGO
729.631	0	L264	NaN	NaN	KEYRESP_LOGO
735.112	0	L21	1	2	STIM_LOGO
736.112	5	L21	1	2	RETENTION_LOGO
741.112	0	L21	NaN	NaN	VERBALRESP_LOGO
744.785	0	L21	NaN	NaN	KEYRESP_LOGO
746.785	8	NaN	NaN	NaN	BREAK
756.112	0	L205	NaN	1	STIM_BRAND
757.112	5	L205	NaN	1	RETENTION_BRAND
762.66	0	L205	NaN	NaN	KEYRESP_BRAND
766.112	0	L2	NaN	2	STIM_BRAND
767.112	5	L2	NaN	2	RETENTION_BRAND
772.586	0	L2	NaN	NaN	KEYRESP_BRAND
776.112	0	L289	NaN	1	STIM_BRAND
777.112	5	L289	NaN	1	RETENTION_BRAND
783.413	0	L289	NaN	NaN	KEYRESP_BRAND
786.112	0	L433	NaN	1	STIM_BRAND
787.112	5	L433	NaN	1	RETENTION_BRAND
792.557	0	L433	NaN	NaN	KEYRESP_BRAND
795.112	0	L144	NaN	2	STIM_BRAND
796.112	5	L144	NaN	2	RETENTION_BRAND
802.255	0	L144	NaN	NaN	KEYRESP_BRAND
804.612	0	L217	NaN	2	STIM_BRAND
805.612	5	L217	NaN	2	RETENTION_BRAND
811.065	0	L217	NaN	NaN	KEYRESP_BRAND
814.112	0	L238	NaN	2	STIM_BRAND
815.112	5	L238	NaN	2	RETENTION_BRAND
820.593	0	L238	NaN	NaN	KEYRESP_BRAND
823.613	0	L170	NaN	2	STIM_BRAND
824.613	5	L170	NaN	2	RETENTION_BRAND
830.168	0	L170	NaN	NaN	KEYRESP_BRAND
832.613	0	L139	NaN	1	STIM_BRAND
833.613	5	L139	NaN	1	RETENTION_BRAND
839.15	0	L139	NaN	NaN	KEYRESP_BRAND
841.613	0	L418	NaN	2	STIM_BRAND
842.613	5	L418	NaN	2	RETENTION_BRAND
848.16	0	L418	NaN	NaN	KEYRESP_BRAND
851.613	0	L312	NaN	2	STIM_BRAND
852.613	5	L312	NaN	2	RETENTION_BRAND
858.013	0	L312	NaN	NaN	KEYRESP_BRAND
860.613	0	L324	NaN	1	STIM_BRAND
861.613	5	L324	NaN	1	RETENTION_BRAND
867.49	0	L324	NaN	NaN	KEYRESP_BRAND
870.113	0	L173	NaN	2	STIM_BRAND
871.113	5	L173	NaN	2	RETENTION_BRAND
876.681	0	L173	NaN	NaN	KEYRESP_BRAND
880.113	0	L279	NaN	2	STIM_BRAND
881.113	5	L279	NaN	2	RETENTION_BRAND
886.721	0	L279	NaN	NaN	KEYRESP_BRAND
889.113	0	L407	NaN	1	STIM_BRAND
890.113	5	L407	NaN	1	RETENTION_BRAND
895.593	0	L407	NaN	NaN	KEYRESP_BRAND
898.613	0	L33	NaN	2	STIM_BRAND
899.613	5	L33	NaN	2	RETENTION_BRAND
904.938	0	L33	NaN	NaN	KEYRESP_BRAND
908.613	0	L21	NaN	2	STIM_BRAND
909.613	5	L21	NaN	2	RETENTION_BRAND
915.089	0	L21	NaN	NaN	KEYRESP_BRAND
917.613	0	L218	NaN	2	STIM_BRAND
918.613	5	L218	NaN	2	RETENTION_BRAND
924.125	0	L218	NaN	NaN	KEYRESP_BRAND
926.613	0	L147	NaN	2	STIM_BRAND
927.613	5	L147	NaN	2	RETENTION_BRAND
933.055	0	L147	NaN	NaN	KEYRESP_BRAND
935.613	0	L422	NaN	2	STIM_BRAND
936.613	5	L422	NaN	2	RETENTION_BRAND
942.067	0	L422	NaN	NaN	KEYRESP_BRAND
945.613	0	L318	NaN	2	STIM_BRAND
946.613	5	L318	NaN	2	RETENTION_BRAND
952.124	0	L318	NaN	NaN	KEYRESP_BRAND
954.613	0	L119	NaN	2	STIM_BRAND
955.613	5	L119	NaN	2	RETENTION_BRAND
961.227	0	L119	NaN	NaN	KEYRESP_BRAND
964.613	0	L100	NaN	1	STIM_BRAND
965.613	5	L100	NaN	1	RETENTION_BRAND
970.984	0	L100	NaN	NaN	KEYRESP_BRAND
974.613	0	L180	NaN	1	STIM_BRAND
975.613	5	L180	NaN	1	RETENTION_BRAND
981.565	0	L180	NaN	NaN	KEYRESP_BRAND
984.113	0	L347	NaN	2	STIM_BRAND
985.113	5	L347	NaN	2	RETENTION_BRAND
990.6	0	L347	NaN	NaN	KEYRESP_BRAND
993.113	0	L219	NaN	2	STIM_BRAND
994.113	5	L219	NaN	2	RETENTION_BRAND
999.568	0	L219	NaN	NaN	KEYRESP_BRAND
1003.113	0	L87	NaN	2	STIM_BRAND
1004.113	5	L87	NaN	2	RETENTION_BRAND
1010.173	0	L87	NaN	NaN	KEYRESP_BRAND
1012.613	0	L113	NaN	2	STIM_BRAND
1013.613	5	L113	NaN	2	RETENTION_BRAND
1019.309	0	L113	NaN	NaN	KEYRESP_BRAND
1022.613	0	L274	NaN	1	STIM_BRAND
1023.613	5	L274	NaN	1	RETENTION_BRAND
1029.098	0	L274	NaN	NaN	KEYRESP_BRAND
1032.113	0	L79	NaN	2	STIM_BRAND
1033.113	5	L79	NaN	2	RETENTION_BRAND
1038.576	0	L79	NaN	NaN	KEYRESP_BRAND
1042.113	0	L384	NaN	2	STIM_BRAND
1043.113	5	L384	NaN	2	RETENTION_BRAND
1048.501	0	L384	NaN	NaN	KEYRESP_BRAND
1051.613	0	L16	NaN	2	STIM_BRAND
1052.613	5	L16	NaN	2	RETENTION_BRAND
1058.146	0	L16	NaN	NaN	KEYRESP_BRAND
1061.613	0	L207	NaN	2	STIM_BRAND
1062.613	5	L207	NaN	2	RETENTION_BRAND
1068.11	0	L207	NaN	NaN	KEYRESP_BRAND
1071.113	0	L153	NaN	2	STIM_BRAND
1072.113	5	L153	NaN	2	RETENTION_BRAND
1077.516	0	L153	NaN	NaN	KEYRESP_BRAND
1080.613	0	L237	NaN	2	STIM_BRAND
1081.613	5	L237	NaN	2	RETENTION_BRAND
1087.075	0	L237	NaN	NaN	KEYRESP_BRAND
1090.613	0	L39	NaN	1	STIM_BRAND
1091.614	5	L39	NaN	1	RETENTION_BRAND
1097.068	0	L39	NaN	NaN	KEYRESP_BRAND
1099.614	0	L230	NaN	2	STIM_BRAND
1100.613	5	L230	NaN	2	RETENTION_BRAND
1106.664	0	L230	NaN	NaN	KEYRESP_BRAND
1109.114	0	L264	NaN	1	STIM_BRAND
1110.114	5	L264	NaN	1	RETENTION_BRAND
1116.131	0	L264	NaN	NaN	KEYRESP_BRAND
1119.114	0	L301	NaN	2	STIM_BRAND
1120.114	5	L301	NaN	2	RETENTION_BRAND
1125.74	0	L301	NaN	NaN	KEYRESP_BRAND
1128.114	0	L227	NaN	2	STIM_BRAND
1129.114	5	L227	NaN	2	RETENTION_BRAND
1134.603	0	L227	NaN	NaN	KEYRESP_BRAND
1138.114	0	L161	NaN	2	STIM_BRAND
1139.114	5	L161	NaN	2	RETENTION_BRAND
1144.603	0	L161	NaN	NaN	KEYRESP_BRAND
1147.614	0	L25	NaN	2	STIM_BRAND
1148.614	5	L25	NaN	2	RETENTION_BRAND
1153.988	0	L25	NaN	NaN	KEYRESP_BRAND
1157.114	0	L72	NaN	1	STIM_BRAND
1158.114	5	L72	NaN	1	RETENTION_BRAND
1163.523	0	L72	NaN	NaN	KEYRESP_BRAND
1166.114	0	L267	NaN	1	STIM_BRAND
1167.114	5	L267	NaN	1	RETENTION_BRAND
1172.592	0	L267	NaN	NaN	KEYRESP_BRAND
1175.114	0	L5	NaN	2	STIM_BRAND
1176.114	5	L5	NaN	2	RETENTION_BRAND
1181.993	0	L5	NaN	NaN	KEYRESP_BRAND
1184.614	0	L22	NaN	1	STIM_BRAND
1185.614	5	L22	NaN	1	RETENTION_BRAND
1191.645	0	L22	NaN	NaN	KEYRESP_BRAND
1193.614	0	L379	NaN	1	STIM_BRAND
1194.614	5	L379	NaN	1	RETENTION_BRAND
1200.056	0	L379	NaN	NaN	KEYRESP_BRAND
1203.614	0	L103	NaN	1	STIM_BRAND
1204.614	5	L103	NaN	1	RETENTION_BRAND
1210.02	0	L103	NaN	NaN	KEYRESP_BRAND
1213.114	0	L413	NaN	2	STIM_BRAND
1214.114	5	L413	NaN	2	RETENTION_BRAND
1219.511	0	L413	NaN	NaN	KEYRESP_BRAND
1222.164	0	L221	NaN	1	STIM_BRAND
1223.164	5	L221	NaN	1	RETENTION_BRAND
1228.681	0	L221	NaN	NaN	KEYRESP_BRAND
