onset	duration	stim_filename	verbal_resp	key_resp	event_type
2.638	0	L205	2	2	STIM_LOGO
3.638	5	L205	2	2	RETENTION_LOGO
8.638	0	L205	NaN	NaN	VERBALRESP_LOGO
12.607	0	L205	NaN	NaN	KEYRESP_LOGO
15.655	0	L2	2	2	STIM_LOGO
16.655	5	L2	2	2	RETENTION_LOGO
21.655	0	L2	NaN	NaN	VERBALRESP_LOGO
25.752	0	L2	NaN	NaN	KEYRESP_LOGO
30.671	0	L318	1	2	STIM_LOGO
31.671	5	L318	1	2	RETENTION_LOGO
36.671	0	L318	NaN	NaN	VERBALRESP_LOGO
41.007	0	L318	NaN	NaN	KEYRESP_LOGO
47.671	0	L267	0	1	STIM_LOGO
48.671	5	L267	0	1	RETENTION_LOGO
53.672	0	L267	NaN	NaN	VERBALRESP_LOGO
57.799	0	L267	NaN	NaN	KEYRESP_LOGO
64.672	0	L218	0	1	STIM_LOGO
65.672	5	L218	0	1	RETENTION_LOGO
70.672	0	L218	NaN	NaN	VERBALRESP_LOGO
75.219	0	L218	NaN	NaN	KEYRESP_LOGO
76.672	0	L162	0	1	STIM_LOGO
77.672	5	L162	0	1	RETENTION_LOGO
82.672	0	L162	NaN	NaN	VERBALRESP_LOGO
86.62	0	L162	NaN	NaN	KEYRESP_LOGO
89.688	0	L300	0	1	STIM_LOGO
90.688	5	L300	0	1	RETENTION_LOGO
95.688	0	L300	NaN	NaN	VERBALRESP_LOGO
99.597	0	L300	NaN	NaN	KEYRESP_LOGO
106.705	0	L113	0	1	STIM_LOGO
107.705	5	L113	0	1	RETENTION_LOGO
112.705	0	L113	NaN	NaN	VERBALRESP_LOGO
117.066	0	L113	NaN	NaN	KEYRESP_LOGO
122.705	0	L389	1	2	STIM_LOGO
123.705	5	L389	1	2	RETENTION_LOGO
128.705	0	L389	NaN	NaN	VERBALRESP_LOGO
133.006	0	L389	NaN	NaN	KEYRESP_LOGO
138.705	0	L252	0	1	STIM_LOGO
139.705	5	L252	0	1	RETENTION_LOGO
144.705	0	L252	NaN	NaN	VERBALRESP_LOGO
149.365	0	L252	NaN	NaN	KEYRESP_LOGO
150.705	0	L144	0	1	STIM_LOGO
151.705	5	L144	0	1	RETENTION_LOGO
156.705	0	L144	NaN	NaN	VERBALRESP_LOGO
161.453	0	L144	NaN	NaN	KEYRESP_LOGO
168.706	0	L264	1	2	STIM_LOGO
169.706	5	L264	1	2	RETENTION_LOGO
174.706	0	L264	NaN	NaN	VERBALRESP_LOGO
178.568	0	L264	NaN	NaN	KEYRESP_LOGO
183.706	0	L88	0	1	STIM_LOGO
184.706	5	L88	0	1	RETENTION_LOGO
189.706	0	L88	NaN	NaN	VERBALRESP_LOGO
194.214	0	L88	NaN	NaN	KEYRESP_LOGO
201.706	0	L217	0	1	STIM_LOGO
202.706	5	L217	0	1	RETENTION_LOGO
207.706	0	L217	NaN	NaN	VERBALRESP_LOGO
212.585	0	L217	NaN	NaN	KEYRESP_LOGO
217.706	0	L49	0	1	STIM_LOGO
218.706	5	L49	0	1	RETENTION_LOGO
223.706	0	L49	NaN	NaN	VERBALRESP_LOGO
227.749	0	L49	NaN	NaN	KEYRESP_LOGO
232.706	0	L363	0	0	STIM_LOGO
233.706	5	L363	0	0	RETENTION_LOGO
238.706	0	L363	NaN	NaN	VERBALRESP_LOGO
246.756	0	L279	0	1	STIM_LOGO
247.756	5	L279	0	1	RETENTION_LOGO
252.756	0	L279	NaN	NaN	VERBALRESP_LOGO
256.563	0	L279	NaN	NaN	KEYRESP_LOGO
259.756	0	L137	0	0	STIM_LOGO
260.756	5	L137	0	0	RETENTION_LOGO
265.756	0	L137	NaN	NaN	VERBALRESP_LOGO
278.84	0	L348	0	1	STIM_LOGO
279.84	5	L348	0	1	RETENTION_LOGO
284.84	0	L348	NaN	NaN	VERBALRESP_LOGO
289.24	0	L348	NaN	NaN	KEYRESP_LOGO
295.856	0	L315	1	2	STIM_LOGO
296.856	5	L315	1	2	RETENTION_LOGO
301.856	0	L315	NaN	NaN	VERBALRESP_LOGO
306.104	0	L315	NaN	NaN	KEYRESP_LOGO
307.856	0	L71	0	1	STIM_LOGO
308.856	5	L71	0	1	RETENTION_LOGO
313.856	0	L71	NaN	NaN	VERBALRESP_LOGO
318.724	0	L71	NaN	NaN	KEYRESP_LOGO
320.856	0	L35	0	1	STIM_LOGO
321.856	5	L35	0	1	RETENTION_LOGO
326.857	0	L35	NaN	NaN	VERBALRESP_LOGO
331.581	0	L35	NaN	NaN	KEYRESP_LOGO
335.857	0	L316	0	1	STIM_LOGO
336.857	5	L316	0	1	RETENTION_LOGO
341.857	0	L316	NaN	NaN	VERBALRESP_LOGO
346.589	0	L316	NaN	NaN	KEYRESP_LOGO
352.857	0	L433	0	1	STIM_LOGO
353.857	5	L433	0	1	RETENTION_LOGO
358.857	0	L433	NaN	NaN	VERBALRESP_LOGO
363.105	0	L433	NaN	NaN	KEYRESP_LOGO
364.857	0	L323	0	1	STIM_LOGO
365.857	5	L323	0	1	RETENTION_LOGO
370.857	0	L323	NaN	NaN	VERBALRESP_LOGO
375.291	0	L323	NaN	NaN	KEYRESP_LOGO
380.857	0	L319	0	1	STIM_LOGO
381.857	5	L319	0	1	RETENTION_LOGO
386.857	0	L319	NaN	NaN	VERBALRESP_LOGO
391.721	0	L319	NaN	NaN	KEYRESP_LOGO
396.857	0	L417	0	1	STIM_LOGO
397.857	5	L417	0	1	RETENTION_LOGO
402.857	0	L417	NaN	NaN	VERBALRESP_LOGO
407.192	0	L417	NaN	NaN	KEYRESP_LOGO
408.857	0	L8	0	1	STIM_LOGO
409.857	5	L8	0	1	RETENTION_LOGO
414.857	0	L8	NaN	NaN	VERBALRESP_LOGO
419.327	0	L8	NaN	NaN	KEYRESP_LOGO
422.857	0	L151	0	1	STIM_LOGO
423.857	5	L151	0	1	RETENTION_LOGO
428.857	0	L151	NaN	NaN	VERBALRESP_LOGO
433.694	0	L151	NaN	NaN	KEYRESP_LOGO
435.857	0	L295	1	2	STIM_LOGO
436.857	5	L295	1	2	RETENTION_LOGO
441.857	0	L295	NaN	NaN	VERBALRESP_LOGO
446.445	0	L295	NaN	NaN	KEYRESP_LOGO
448.874	0	L301	0	1	STIM_LOGO
449.874	5	L301	0	1	RETENTION_LOGO
454.874	0	L301	NaN	NaN	VERBALRESP_LOGO
459.761	0	L301	NaN	NaN	KEYRESP_LOGO
460.891	0	L294	0	1	STIM_LOGO
461.891	5	L294	0	1	RETENTION_LOGO
466.891	0	L294	NaN	NaN	VERBALRESP_LOGO
471.432	0	L294	NaN	NaN	KEYRESP_LOGO
477.891	0	L92	0	1	STIM_LOGO
478.891	5	L92	0	1	RETENTION_LOGO
483.891	0	L92	NaN	NaN	VERBALRESP_LOGO
487.892	0	L92	NaN	NaN	KEYRESP_LOGO
493.891	0	L157	1	2	STIM_LOGO
494.891	5	L157	1	2	RETENTION_LOGO
499.891	0	L157	NaN	NaN	VERBALRESP_LOGO
504.256	0	L157	NaN	NaN	KEYRESP_LOGO
507.891	0	L422	0	1	STIM_LOGO
508.891	5	L422	0	1	RETENTION_LOGO
513.891	0	L422	NaN	NaN	VERBALRESP_LOGO
517.601	0	L422	NaN	NaN	KEYRESP_LOGO
522.891	0	L429	0	1	STIM_LOGO
523.891	5	L429	0	1	RETENTION_LOGO
528.891	0	L429	NaN	NaN	VERBALRESP_LOGO
532.744	0	L429	NaN	NaN	KEYRESP_LOGO
540.891	0	L173	0	1	STIM_LOGO
541.891	5	L173	0	1	RETENTION_LOGO
546.891	0	L173	NaN	NaN	VERBALRESP_LOGO
551.366	0	L173	NaN	NaN	KEYRESP_LOGO
553.891	0	L141	0	1	STIM_LOGO
554.891	5	L141	0	1	RETENTION_LOGO
559.891	0	L141	NaN	NaN	VERBALRESP_LOGO
563.954	0	L141	NaN	NaN	KEYRESP_LOGO
567.891	0	L314	0	1	STIM_LOGO
568.891	5	L314	0	1	RETENTION_LOGO
573.891	0	L314	NaN	NaN	VERBALRESP_LOGO
577.703	0	L314	NaN	NaN	KEYRESP_LOGO
580.891	0	L40	1	2	STIM_LOGO
581.891	5	L40	1	2	RETENTION_LOGO
586.891	0	L40	NaN	NaN	VERBALRESP_LOGO
591.231	0	L40	NaN	NaN	KEYRESP_LOGO
592.891	0	L265	0	1	STIM_LOGO
593.891	5	L265	0	1	RETENTION_LOGO
598.891	0	L265	NaN	NaN	VERBALRESP_LOGO
603.19	0	L265	NaN	NaN	KEYRESP_LOGO
610.892	0	L284	0	1	STIM_LOGO
611.892	5	L284	0	1	RETENTION_LOGO
616.892	0	L284	NaN	NaN	VERBALRESP_LOGO
620.721	0	L284	NaN	NaN	KEYRESP_LOGO
624.892	0	L342	0	1	STIM_LOGO
625.892	5	L342	0	1	RETENTION_LOGO
630.892	0	L342	NaN	NaN	VERBALRESP_LOGO
635.129	0	L342	NaN	NaN	KEYRESP_LOGO
638.892	0	L432	0	1	STIM_LOGO
639.892	5	L432	0	1	RETENTION_LOGO
644.892	0	L432	NaN	NaN	VERBALRESP_LOGO
649.052	0	L432	NaN	NaN	KEYRESP_LOGO
657.892	0	L401	1	2	STIM_LOGO
658.892	5	L401	1	2	RETENTION_LOGO
663.892	0	L401	NaN	NaN	VERBALRESP_LOGO
668.325	0	L401	NaN	NaN	KEYRESP_LOGO
670.892	0	L426	0	1	STIM_LOGO
671.892	5	L426	0	1	RETENTION_LOGO
676.892	0	L426	NaN	NaN	VERBALRESP_LOGO
681.027	0	L426	NaN	NaN	KEYRESP_LOGO
682.892	0	L28	1	2	STIM_LOGO
683.892	5	L28	1	2	RETENTION_LOGO
688.892	0	L28	NaN	NaN	VERBALRESP_LOGO
692.732	0	L28	NaN	NaN	KEYRESP_LOGO
701.892	0	L203	0	1	STIM_LOGO
702.892	5	L203	0	1	RETENTION_LOGO
707.892	0	L203	NaN	NaN	VERBALRESP_LOGO
712.167	0	L203	NaN	NaN	KEYRESP_LOGO
716.892	0	L170	0	1	STIM_LOGO
717.892	5	L170	0	1	RETENTION_LOGO
722.892	0	L170	NaN	NaN	VERBALRESP_LOGO
726.916	0	L170	NaN	NaN	KEYRESP_LOGO
735.892	0	L268	0	1	STIM_LOGO
736.892	5	L268	0	1	RETENTION_LOGO
741.892	0	L268	NaN	NaN	VERBALRESP_LOGO
746.328	0	L268	NaN	NaN	KEYRESP_LOGO
748.328	8	NaN	NaN	NaN	BREAK
756.892	0	L205	NaN	2	STIM_BRAND
757.892	5	L205	NaN	2	RETENTION_BRAND
764.668	0	L205	NaN	NaN	KEYRESP_BRAND
766.892	0	L2	NaN	2	STIM_BRAND
767.893	5	L2	NaN	2	RETENTION_BRAND
774.279	0	L2	NaN	NaN	KEYRESP_BRAND
775.893	0	L157	NaN	1	STIM_BRAND
776.893	5	L157	NaN	1	RETENTION_BRAND
782.684	0	L157	NaN	NaN	KEYRESP_BRAND
784.893	0	L315	NaN	1	STIM_BRAND
785.893	5	L315	NaN	1	RETENTION_BRAND
792.232	0	L315	NaN	NaN	KEYRESP_BRAND
794.893	0	L301	NaN	1	STIM_BRAND
795.893	5	L301	NaN	1	RETENTION_BRAND
802.032	0	L301	NaN	NaN	KEYRESP_BRAND
804.893	0	L323	NaN	1	STIM_BRAND
805.893	5	L323	NaN	1	RETENTION_BRAND
811.931	0	L323	NaN	NaN	KEYRESP_BRAND
814.393	0	L71	NaN	1	STIM_BRAND
815.393	5	L71	NaN	1	RETENTION_BRAND
821.541	0	L71	NaN	NaN	KEYRESP_BRAND
824.393	0	L162	NaN	2	STIM_BRAND
825.393	5	L162	NaN	2	RETENTION_BRAND
831.072	0	L162	NaN	NaN	KEYRESP_BRAND
834.393	0	L265	NaN	1	STIM_BRAND
835.393	5	L265	NaN	1	RETENTION_BRAND
842.301	0	L265	NaN	NaN	KEYRESP_BRAND
844.393	0	L389	NaN	1	STIM_BRAND
845.393	5	L389	NaN	1	RETENTION_BRAND
852.022	0	L389	NaN	NaN	KEYRESP_BRAND
853.893	0	L252	NaN	1	STIM_BRAND
854.893	5	L252	NaN	1	RETENTION_BRAND
861.024	0	L252	NaN	NaN	KEYRESP_BRAND
863.393	0	L151	NaN	2	STIM_BRAND
864.393	5	L151	NaN	2	RETENTION_BRAND
870.903	0	L151	NaN	NaN	KEYRESP_BRAND
872.893	0	L268	NaN	1	STIM_BRAND
873.893	5	L268	NaN	1	RETENTION_BRAND
880.594	0	L268	NaN	NaN	KEYRESP_BRAND
881.893	0	L401	NaN	2	STIM_BRAND
882.893	5	L401	NaN	2	RETENTION_BRAND
889.376	0	L401	NaN	NaN	KEYRESP_BRAND
890.893	0	L295	NaN	2	STIM_BRAND
891.893	5	L295	NaN	2	RETENTION_BRAND
897.619	0	L295	NaN	NaN	KEYRESP_BRAND
900.393	0	L144	NaN	2	STIM_BRAND
901.393	5	L144	NaN	2	RETENTION_BRAND
907.227	0	L144	NaN	NaN	KEYRESP_BRAND
910.393	0	L8	NaN	1	STIM_BRAND
911.393	5	L8	NaN	1	RETENTION_BRAND
916.989	0	L8	NaN	NaN	KEYRESP_BRAND
919.393	0	L417	NaN	1	STIM_BRAND
920.393	5	L417	NaN	1	RETENTION_BRAND
926.935	0	L417	NaN	NaN	KEYRESP_BRAND
929.394	0	L426	NaN	2	STIM_BRAND
930.394	5	L426	NaN	2	RETENTION_BRAND
936.319	0	L426	NaN	NaN	KEYRESP_BRAND
938.394	0	L203	NaN	1	STIM_BRAND
939.394	5	L203	NaN	1	RETENTION_BRAND
944.994	0	L203	NaN	NaN	KEYRESP_BRAND
947.894	0	L218	NaN	1	STIM_BRAND
948.894	5	L218	NaN	1	RETENTION_BRAND
955.399	0	L218	NaN	NaN	KEYRESP_BRAND
957.394	0	L348	NaN	1	STIM_BRAND
958.394	5	L348	NaN	1	RETENTION_BRAND
964.519	0	L348	NaN	NaN	KEYRESP_BRAND
966.894	0	L318	NaN	2	STIM_BRAND
967.894	5	L318	NaN	2	RETENTION_BRAND
973.936	0	L318	NaN	NaN	KEYRESP_BRAND
975.894	0	L264	NaN	2	STIM_BRAND
976.894	5	L264	NaN	2	RETENTION_BRAND
982.982	0	L264	NaN	NaN	KEYRESP_BRAND
985.394	0	L363	NaN	1	STIM_BRAND
986.394	5	L363	NaN	1	RETENTION_BRAND
992.238	0	L363	NaN	NaN	KEYRESP_BRAND
995.394	0	L40	NaN	2	STIM_BRAND
996.394	5	L40	NaN	2	RETENTION_BRAND
1002.175	0	L40	NaN	NaN	KEYRESP_BRAND
1005.394	0	L88	NaN	1	STIM_BRAND
1006.394	5	L88	NaN	1	RETENTION_BRAND
1012.872	0	L88	NaN	NaN	KEYRESP_BRAND
1015.394	0	L433	NaN	1	STIM_BRAND
1016.394	5	L433	NaN	1	RETENTION_BRAND
1022.501	0	L433	NaN	NaN	KEYRESP_BRAND
1024.394	0	L279	NaN	2	STIM_BRAND
1025.394	5	L279	NaN	2	RETENTION_BRAND
1031.264	0	L279	NaN	NaN	KEYRESP_BRAND
1033.894	0	L429	NaN	1	STIM_BRAND
1034.894	5	L429	NaN	1	RETENTION_BRAND
1041.58	0	L429	NaN	NaN	KEYRESP_BRAND
1043.394	0	L432	NaN	1	STIM_BRAND
1044.394	5	L432	NaN	1	RETENTION_BRAND
1051.229	0	L432	NaN	NaN	KEYRESP_BRAND
1053.394	0	L173	NaN	2	STIM_BRAND
1054.394	5	L173	NaN	2	RETENTION_BRAND
1060.759	0	L173	NaN	NaN	KEYRESP_BRAND
1062.394	0	L316	NaN	1	STIM_BRAND
1063.394	5	L316	NaN	1	RETENTION_BRAND
1069.242	0	L316	NaN	NaN	KEYRESP_BRAND
1072.394	0	L141	NaN	2	STIM_BRAND
1073.394	5	L141	NaN	2	RETENTION_BRAND
1079.943	0	L141	NaN	NaN	KEYRESP_BRAND
1081.894	0	L422	NaN	1	STIM_BRAND
1082.894	5	L422	NaN	1	RETENTION_BRAND
1089.282	0	L422	NaN	NaN	KEYRESP_BRAND
1090.894	0	L342	NaN	1	STIM_BRAND
1091.895	5	L342	NaN	1	RETENTION_BRAND
1097.939	0	L342	NaN	NaN	KEYRESP_BRAND
1100.395	0	L113	NaN	2	STIM_BRAND
1101.395	5	L113	NaN	2	RETENTION_BRAND
1107.156	0	L113	NaN	NaN	KEYRESP_BRAND
1109.895	0	L217	NaN	2	STIM_BRAND
1110.895	5	L217	NaN	2	RETENTION_BRAND
1116.679	0	L217	NaN	NaN	KEYRESP_BRAND
1118.895	0	L49	NaN	0	STIM_BRAND
1119.895	5	L49	NaN	0	RETENTION_BRAND
1128.911	0	L319	NaN	1	STIM_BRAND
1129.911	5	L319	NaN	1	RETENTION_BRAND
1136.147	0	L319	NaN	NaN	KEYRESP_BRAND
1138.411	0	L267	NaN	2	STIM_BRAND
1139.411	5	L267	NaN	2	RETENTION_BRAND
1145.446	0	L267	NaN	NaN	KEYRESP_BRAND
1147.412	0	L137	NaN	1	STIM_BRAND
1148.411	5	L137	NaN	1	RETENTION_BRAND
1155.411	0	L137	NaN	NaN	KEYRESP_BRAND
1156.428	0	L294	NaN	1	STIM_BRAND
1157.428	5	L294	NaN	1	RETENTION_BRAND
1162.99	0	L294	NaN	NaN	KEYRESP_BRAND
1165.428	0	L28	NaN	2	STIM_BRAND
1166.428	5	L28	NaN	2	RETENTION_BRAND
1172.322	0	L28	NaN	NaN	KEYRESP_BRAND
1174.428	0	L92	NaN	1	STIM_BRAND
1175.428	5	L92	NaN	1	RETENTION_BRAND
1181.417	0	L92	NaN	NaN	KEYRESP_BRAND
1183.928	0	L170	NaN	2	STIM_BRAND
1184.928	5	L170	NaN	2	RETENTION_BRAND
1190.586	0	L170	NaN	NaN	KEYRESP_BRAND
1193.928	0	L35	NaN	1	STIM_BRAND
1194.928	5	L35	NaN	1	RETENTION_BRAND
1201.53	0	L35	NaN	NaN	KEYRESP_BRAND
1203.929	0	L300	NaN	1	STIM_BRAND
1204.929	5	L300	NaN	1	RETENTION_BRAND
1210.943	0	L300	NaN	NaN	KEYRESP_BRAND
1213.929	0	L314	NaN	2	STIM_BRAND
1214.929	5	L314	NaN	2	RETENTION_BRAND
1221.41	0	L314	NaN	NaN	KEYRESP_BRAND
1222.443	0	L324	NaN	2	STIM_BRAND
1223.443	5	L324	NaN	2	RETENTION_BRAND
