onset	duration	stim_filename	verbal_resp	key_resp	event_type
2.653	0	L205	2	1	STIM_LOGO
3.653	5	L205	2	1	RETENTION_LOGO
8.653	0	L205	NaN	NaN	VERBALRESP_LOGO
12.133	0	L205	NaN	NaN	KEYRESP_LOGO
15.67	0	L2	2	2	STIM_LOGO
16.67	5	L2	2	2	RETENTION_LOGO
21.67	0	L2	NaN	NaN	VERBALRESP_LOGO
25.075	0	L2	NaN	NaN	KEYRESP_LOGO
34.687	0	L188	1	2	STIM_LOGO
35.687	5	L188	1	2	RETENTION_LOGO
40.687	0	L188	NaN	NaN	VERBALRESP_LOGO
44.737	0	L188	NaN	NaN	KEYRESP_LOGO
46.687	0	L46	0	0	STIM_LOGO
47.687	5	L46	0	0	RETENTION_LOGO
52.687	0	L46	NaN	NaN	VERBALRESP_LOGO
63.737	0	L262	3	2	STIM_LOGO
64.737	5	L262	3	2	RETENTION_LOGO
69.737	0	L262	NaN	NaN	VERBALRESP_LOGO
73.857	0	L262	NaN	NaN	KEYRESP_LOGO
77.737	0	L328	0	1	STIM_LOGO
78.737	5	L328	0	1	RETENTION_LOGO
83.737	0	L328	NaN	NaN	VERBALRESP_LOGO
86.889	0	L328	NaN	NaN	KEYRESP_LOGO
92.737	0	L7	0	2	STIM_LOGO
93.737	5	L7	0	2	RETENTION_LOGO
98.737	0	L7	NaN	NaN	VERBALRESP_LOGO
102.933	0	L7	NaN	NaN	KEYRESP_LOGO
109.737	0	L141	3	1	STIM_LOGO
110.737	5	L141	3	1	RETENTION_LOGO
115.737	0	L141	NaN	NaN	VERBALRESP_LOGO
119.537	0	L141	NaN	NaN	KEYRESP_LOGO
123.736	0	L260	1	2	STIM_LOGO
124.736	5	L260	1	2	RETENTION_LOGO
129.736	0	L260	NaN	NaN	VERBALRESP_LOGO
133.81	0	L260	NaN	NaN	KEYRESP_LOGO
135.736	0	L143	0	1	STIM_LOGO
136.736	5	L143	0	1	RETENTION_LOGO
141.736	0	L143	NaN	NaN	VERBALRESP_LOGO
145.452	0	L143	NaN	NaN	KEYRESP_LOGO
150.736	0	L49	0	1	STIM_LOGO
151.736	5	L49	0	1	RETENTION_LOGO
156.736	0	L49	NaN	NaN	VERBALRESP_LOGO
160.506	0	L49	NaN	NaN	KEYRESP_LOGO
168.736	0	L57	1	2	STIM_LOGO
169.736	5	L57	1	2	RETENTION_LOGO
174.736	0	L57	NaN	NaN	VERBALRESP_LOGO
178.366	0	L57	NaN	NaN	KEYRESP_LOGO
185.736	0	L339	1	1	STIM_LOGO
186.736	5	L339	1	1	RETENTION_LOGO
191.736	0	L339	NaN	NaN	VERBALRESP_LOGO
195.559	0	L339	NaN	NaN	KEYRESP_LOGO
201.736	0	L305	0	2	STIM_LOGO
202.736	5	L305	0	2	RETENTION_LOGO
207.736	0	L305	NaN	NaN	VERBALRESP_LOGO
211.283	0	L305	NaN	NaN	KEYRESP_LOGO
213.736	0	L45	0	1	STIM_LOGO
214.736	5	L45	0	1	RETENTION_LOGO
219.736	0	L45	NaN	NaN	VERBALRESP_LOGO
223.28	0	L45	NaN	NaN	KEYRESP_LOGO
227.736	0	L110	2	2	STIM_LOGO
228.736	5	L110	2	2	RETENTION_LOGO
233.736	0	L110	NaN	NaN	VERBALRESP_LOGO
238.205	0	L110	NaN	NaN	KEYRESP_LOGO
241.736	0	L92	1	2	STIM_LOGO
242.736	5	L92	1	2	RETENTION_LOGO
247.736	0	L92	NaN	NaN	VERBALRESP_LOGO
250.907	0	L92	NaN	NaN	KEYRESP_LOGO
256.736	0	L257	1	2	STIM_LOGO
257.736	5	L257	1	2	RETENTION_LOGO
262.736	0	L257	NaN	NaN	VERBALRESP_LOGO
266.704	0	L257	NaN	NaN	KEYRESP_LOGO
268.736	0	L85	0	2	STIM_LOGO
269.736	5	L85	0	2	RETENTION_LOGO
274.736	0	L85	NaN	NaN	VERBALRESP_LOGO
279.48	0	L85	NaN	NaN	KEYRESP_LOGO
284.736	0	L202	0	0	STIM_LOGO
285.736	5	L202	0	0	RETENTION_LOGO
290.736	0	L202	NaN	NaN	VERBALRESP_LOGO
297.936	0	L265	1	2	STIM_LOGO
298.936	5	L265	1	2	RETENTION_LOGO
303.936	0	L265	NaN	NaN	VERBALRESP_LOGO
307.573	0	L265	NaN	NaN	KEYRESP_LOGO
312.936	0	L186	0	1	STIM_LOGO
313.936	5	L186	0	1	RETENTION_LOGO
318.936	0	L186	NaN	NaN	VERBALRESP_LOGO
322.268	0	L186	NaN	NaN	KEYRESP_LOGO
327.936	0	L334	1	1	STIM_LOGO
328.936	5	L334	1	1	RETENTION_LOGO
333.936	0	L334	NaN	NaN	VERBALRESP_LOGO
337.962	0	L334	NaN	NaN	KEYRESP_LOGO
346.936	0	L278	0	2	STIM_LOGO
347.936	5	L278	0	2	RETENTION_LOGO
352.936	0	L278	NaN	NaN	VERBALRESP_LOGO
356.336	0	L278	NaN	NaN	KEYRESP_LOGO
358.936	0	L253	0	1	STIM_LOGO
359.936	5	L253	0	1	RETENTION_LOGO
364.936	0	L253	NaN	NaN	VERBALRESP_LOGO
369.104	0	L253	NaN	NaN	KEYRESP_LOGO
371.953	0	L137	0	1	STIM_LOGO
372.953	5	L137	0	1	RETENTION_LOGO
377.953	0	L137	NaN	NaN	VERBALRESP_LOGO
381.949	0	L137	NaN	NaN	KEYRESP_LOGO
383.969	0	L194	0	1	STIM_LOGO
384.969	5	L194	0	1	RETENTION_LOGO
389.969	0	L194	NaN	NaN	VERBALRESP_LOGO
393.375	0	L194	NaN	NaN	KEYRESP_LOGO
402.969	0	L252	1	1	STIM_LOGO
403.969	5	L252	1	1	RETENTION_LOGO
408.969	0	L252	NaN	NaN	VERBALRESP_LOGO
412.716	0	L252	NaN	NaN	KEYRESP_LOGO
415.969	0	L88	0	0	STIM_LOGO
416.969	5	L88	0	0	RETENTION_LOGO
421.969	0	L88	NaN	NaN	VERBALRESP_LOGO
434.103	0	L310	0	1	STIM_LOGO
435.103	5	L310	0	1	RETENTION_LOGO
440.103	0	L310	NaN	NaN	VERBALRESP_LOGO
444.206	0	L310	NaN	NaN	KEYRESP_LOGO
446.119	0	L122	0	2	STIM_LOGO
447.119	5	L122	0	2	RETENTION_LOGO
452.119	0	L122	NaN	NaN	VERBALRESP_LOGO
455.71	0	L122	NaN	NaN	KEYRESP_LOGO
462.119	0	L256	3	2	STIM_LOGO
463.119	5	L256	3	2	RETENTION_LOGO
468.119	0	L256	NaN	NaN	VERBALRESP_LOGO
471.878	0	L256	NaN	NaN	KEYRESP_LOGO
475.119	0	L425	3	2	STIM_LOGO
476.119	5	L425	3	2	RETENTION_LOGO
481.119	0	L425	NaN	NaN	VERBALRESP_LOGO
485.289	0	L425	NaN	NaN	KEYRESP_LOGO
492.119	0	L360	3	2	STIM_LOGO
493.119	5	L360	3	2	RETENTION_LOGO
498.119	0	L360	NaN	NaN	VERBALRESP_LOGO
503.07	0	L360	NaN	NaN	KEYRESP_LOGO
505.253	0	L395	0	2	STIM_LOGO
506.252	5	L395	0	2	RETENTION_LOGO
511.252	0	L395	NaN	NaN	VERBALRESP_LOGO
514.664	0	L395	NaN	NaN	KEYRESP_LOGO
518.269	0	L250	0	1	STIM_LOGO
519.269	5	L250	0	1	RETENTION_LOGO
524.269	0	L250	NaN	NaN	VERBALRESP_LOGO
528.052	0	L250	NaN	NaN	KEYRESP_LOGO
533.269	0	L29	3	2	STIM_LOGO
534.269	5	L29	3	2	RETENTION_LOGO
539.269	0	L29	NaN	NaN	VERBALRESP_LOGO
543.051	0	L29	NaN	NaN	KEYRESP_LOGO
551.269	0	L322	0	1	STIM_LOGO
552.269	5	L322	0	1	RETENTION_LOGO
557.269	0	L322	NaN	NaN	VERBALRESP_LOGO
561.116	0	L322	NaN	NaN	KEYRESP_LOGO
567.269	0	L270	0	2	STIM_LOGO
568.269	5	L270	0	2	RETENTION_LOGO
573.269	0	L270	NaN	NaN	VERBALRESP_LOGO
576.614	0	L270	NaN	NaN	KEYRESP_LOGO
580.269	0	L117	2	2	STIM_LOGO
581.269	5	L117	2	2	RETENTION_LOGO
586.269	0	L117	NaN	NaN	VERBALRESP_LOGO
590.207	0	L117	NaN	NaN	KEYRESP_LOGO
596.269	0	L269	0	1	STIM_LOGO
597.269	5	L269	0	1	RETENTION_LOGO
602.269	0	L269	NaN	NaN	VERBALRESP_LOGO
606.426	0	L269	NaN	NaN	KEYRESP_LOGO
613.269	0	L204	0	1	STIM_LOGO
614.269	5	L204	0	1	RETENTION_LOGO
619.269	0	L204	NaN	NaN	VERBALRESP_LOGO
622.813	0	L204	NaN	NaN	KEYRESP_LOGO
631.269	0	L274	3	0	STIM_LOGO
632.269	5	L274	3	0	RETENTION_LOGO
637.269	0	L274	NaN	NaN	VERBALRESP_LOGO
648.352	0	L303	0	2	STIM_LOGO
649.352	5	L303	0	2	RETENTION_LOGO
654.352	0	L303	NaN	NaN	VERBALRESP_LOGO
657.686	0	L303	NaN	NaN	KEYRESP_LOGO
661.369	0	L18	1	2	STIM_LOGO
662.369	5	L18	1	2	RETENTION_LOGO
667.369	0	L18	NaN	NaN	VERBALRESP_LOGO
671.323	0	L18	NaN	NaN	KEYRESP_LOGO
675.369	0	L284	1	2	STIM_LOGO
676.369	5	L284	1	2	RETENTION_LOGO
681.369	0	L284	NaN	NaN	VERBALRESP_LOGO
685.041	0	L284	NaN	NaN	KEYRESP_LOGO
687.369	0	L173	0	2	STIM_LOGO
688.369	5	L173	0	2	RETENTION_LOGO
693.369	0	L173	NaN	NaN	VERBALRESP_LOGO
696.845	0	L173	NaN	NaN	KEYRESP_LOGO
701.369	0	L201	0	1	STIM_LOGO
702.369	5	L201	0	1	RETENTION_LOGO
707.369	0	L201	NaN	NaN	VERBALRESP_LOGO
710.689	0	L201	NaN	NaN	KEYRESP_LOGO
720.369	0	L282	1	2	STIM_LOGO
721.369	5	L282	1	2	RETENTION_LOGO
726.369	0	L282	NaN	NaN	VERBALRESP_LOGO
729.916	0	L282	NaN	NaN	KEYRESP_LOGO
736.385	0	L77	1	2	STIM_LOGO
737.385	5	L77	1	2	RETENTION_LOGO
742.385	0	L77	NaN	NaN	VERBALRESP_LOGO
745.856	0	L77	NaN	NaN	KEYRESP_LOGO
747.856	8	NaN	NaN	NaN	BREAK
757.402	0	L205	NaN	2	STIM_BRAND
758.402	5	L205	NaN	2	RETENTION_BRAND
763.753	0	L205	NaN	NaN	KEYRESP_BRAND
767.402	0	L2	NaN	2	STIM_BRAND
768.402	5	L2	NaN	2	RETENTION_BRAND
773.764	0	L2	NaN	NaN	KEYRESP_BRAND
776.402	0	L194	NaN	1	STIM_BRAND
777.402	5	L194	NaN	1	RETENTION_BRAND
783.057	0	L194	NaN	NaN	KEYRESP_BRAND
786.402	0	L85	NaN	1	STIM_BRAND
787.402	5	L85	NaN	1	RETENTION_BRAND
793.044	0	L85	NaN	NaN	KEYRESP_BRAND
795.402	0	L328	NaN	2	STIM_BRAND
796.402	5	L328	NaN	2	RETENTION_BRAND
801.915	0	L328	NaN	NaN	KEYRESP_BRAND
805.402	0	L360	NaN	1	STIM_BRAND
806.402	5	L360	NaN	1	RETENTION_BRAND
812.23	0	L360	NaN	NaN	KEYRESP_BRAND
814.402	0	L334	NaN	2	STIM_BRAND
815.402	5	L334	NaN	2	RETENTION_BRAND
820.837	0	L334	NaN	NaN	KEYRESP_BRAND
824.402	0	L250	NaN	1	STIM_BRAND
825.402	5	L250	NaN	1	RETENTION_BRAND
830.922	0	L250	NaN	NaN	KEYRESP_BRAND
833.902	0	L269	NaN	0	STIM_BRAND
834.902	5	L269	NaN	0	RETENTION_BRAND
843.918	0	L45	NaN	1	STIM_BRAND
844.919	5	L45	NaN	1	RETENTION_BRAND
850.597	0	L45	NaN	NaN	KEYRESP_BRAND
853.918	0	L305	NaN	2	STIM_BRAND
854.919	5	L305	NaN	2	RETENTION_BRAND
860.394	0	L305	NaN	NaN	KEYRESP_BRAND
863.918	0	L137	NaN	2	STIM_BRAND
864.918	5	L137	NaN	2	RETENTION_BRAND
870.486	0	L137	NaN	NaN	KEYRESP_BRAND
873.418	0	L46	NaN	1	STIM_BRAND
874.419	5	L46	NaN	1	RETENTION_BRAND
880.342	0	L46	NaN	NaN	KEYRESP_BRAND
882.919	0	L303	NaN	2	STIM_BRAND
883.918	5	L303	NaN	2	RETENTION_BRAND
890.258	0	L303	NaN	NaN	KEYRESP_BRAND
891.918	0	L257	NaN	2	STIM_BRAND
892.918	5	L257	NaN	2	RETENTION_BRAND
898.417	0	L257	NaN	NaN	KEYRESP_BRAND
901.418	0	L270	NaN	1	STIM_BRAND
902.418	5	L270	NaN	1	RETENTION_BRAND
907.806	0	L270	NaN	NaN	KEYRESP_BRAND
910.918	0	L29	NaN	1	STIM_BRAND
911.918	5	L29	NaN	1	RETENTION_BRAND
917.216	0	L29	NaN	NaN	KEYRESP_BRAND
919.918	0	L49	NaN	1	STIM_BRAND
920.918	5	L49	NaN	1	RETENTION_BRAND
926.258	0	L49	NaN	NaN	KEYRESP_BRAND
929.418	0	L57	NaN	2	STIM_BRAND
930.418	5	L57	NaN	2	RETENTION_BRAND
936.007	0	L57	NaN	NaN	KEYRESP_BRAND
938.418	0	L110	NaN	2	STIM_BRAND
939.418	5	L110	NaN	2	RETENTION_BRAND
944.871	0	L110	NaN	NaN	KEYRESP_BRAND
947.418	0	L88	NaN	1	STIM_BRAND
948.418	5	L88	NaN	1	RETENTION_BRAND
953.922	0	L88	NaN	NaN	KEYRESP_BRAND
956.918	0	L395	NaN	1	STIM_BRAND
957.918	5	L395	NaN	1	RETENTION_BRAND
963.264	0	L395	NaN	NaN	KEYRESP_BRAND
966.918	0	L122	NaN	2	STIM_BRAND
967.918	5	L122	NaN	2	RETENTION_BRAND
974.21	0	L122	NaN	NaN	KEYRESP_BRAND
976.918	0	L188	NaN	2	STIM_BRAND
977.918	5	L188	NaN	2	RETENTION_BRAND
983.469	0	L188	NaN	NaN	KEYRESP_BRAND
985.918	0	L278	NaN	1	STIM_BRAND
986.918	5	L278	NaN	1	RETENTION_BRAND
993.237	0	L278	NaN	NaN	KEYRESP_BRAND
995.418	0	L204	NaN	1	STIM_BRAND
996.418	5	L204	NaN	1	RETENTION_BRAND
1001.655	0	L204	NaN	NaN	KEYRESP_BRAND
1004.418	0	L284	NaN	2	STIM_BRAND
1005.418	5	L284	NaN	2	RETENTION_BRAND
1011.241	0	L284	NaN	NaN	KEYRESP_BRAND
1013.418	0	L339	NaN	2	STIM_BRAND
1014.418	5	L339	NaN	2	RETENTION_BRAND
1019.923	0	L339	NaN	NaN	KEYRESP_BRAND
1022.918	0	L77	NaN	2	STIM_BRAND
1023.918	5	L77	NaN	2	RETENTION_BRAND
1029.307	0	L77	NaN	NaN	KEYRESP_BRAND
1031.918	0	L18	NaN	2	STIM_BRAND
1032.918	5	L18	NaN	2	RETENTION_BRAND
1038.755	0	L18	NaN	NaN	KEYRESP_BRAND
1041.418	0	L274	NaN	2	STIM_BRAND
1042.418	5	L274	NaN	2	RETENTION_BRAND
1048.538	0	L274	NaN	NaN	KEYRESP_BRAND
1051.418	0	L265	NaN	2	STIM_BRAND
1052.418	5	L265	NaN	2	RETENTION_BRAND
1057.872	0	L265	NaN	NaN	KEYRESP_BRAND
1060.918	0	L425	NaN	1	STIM_BRAND
1061.918	5	L425	NaN	1	RETENTION_BRAND
1067.109	0	L425	NaN	NaN	KEYRESP_BRAND
1070.418	0	L282	NaN	1	STIM_BRAND
1071.418	5	L282	NaN	1	RETENTION_BRAND
1077.878	0	L282	NaN	NaN	KEYRESP_BRAND
1079.918	0	L202	NaN	2	STIM_BRAND
1080.918	5	L202	NaN	2	RETENTION_BRAND
1086.371	0	L202	NaN	NaN	KEYRESP_BRAND
1089.918	0	L117	NaN	1	STIM_BRAND
1090.918	5	L117	NaN	1	RETENTION_BRAND
1096.314	0	L117	NaN	NaN	KEYRESP_BRAND
1099.918	0	L260	NaN	2	STIM_BRAND
1100.918	5	L260	NaN	2	RETENTION_BRAND
1106.903	0	L260	NaN	NaN	KEYRESP_BRAND
1109.918	0	L143	NaN	1	STIM_BRAND
1110.918	5	L143	NaN	1	RETENTION_BRAND
1116.54	0	L143	NaN	NaN	KEYRESP_BRAND
1119.918	0	L262	NaN	2	STIM_BRAND
1120.918	5	L262	NaN	2	RETENTION_BRAND
1126.435	0	L262	NaN	NaN	KEYRESP_BRAND
1128.918	0	L173	NaN	1	STIM_BRAND
1129.918	5	L173	NaN	1	RETENTION_BRAND
1136.649	0	L173	NaN	NaN	KEYRESP_BRAND
1138.418	0	L322	NaN	1	STIM_BRAND
1139.418	5	L322	NaN	1	RETENTION_BRAND
1145.46	0	L322	NaN	NaN	KEYRESP_BRAND
1147.418	0	L252	NaN	1	STIM_BRAND
1148.418	5	L252	NaN	1	RETENTION_BRAND
1154.142	0	L252	NaN	NaN	KEYRESP_BRAND
1156.418	0	L310	NaN	1	STIM_BRAND
1157.418	5	L310	NaN	1	RETENTION_BRAND
1164.23	0	L310	NaN	NaN	KEYRESP_BRAND
1165.918	0	L201	NaN	1	STIM_BRAND
1166.918	5	L201	NaN	1	RETENTION_BRAND
1172.26	0	L201	NaN	NaN	KEYRESP_BRAND
1174.918	0	L7	NaN	2	STIM_BRAND
1175.918	5	L7	NaN	2	RETENTION_BRAND
1181.314	0	L7	NaN	NaN	KEYRESP_BRAND
1183.918	0	L253	NaN	2	STIM_BRAND
1184.918	5	L253	NaN	2	RETENTION_BRAND
1190.318	0	L253	NaN	NaN	KEYRESP_BRAND
1193.918	0	L256	NaN	0	STIM_BRAND
1194.918	5	L256	NaN	0	RETENTION_BRAND
1203.918	0	L186	NaN	2	STIM_BRAND
1204.918	5	L186	NaN	2	RETENTION_BRAND
1211.114	0	L186	NaN	NaN	KEYRESP_BRAND
1213.918	0	L141	NaN	2	STIM_BRAND
1214.918	5	L141	NaN	2	RETENTION_BRAND
1220.717	0	L141	NaN	NaN	KEYRESP_BRAND
1222.511	0	L71	NaN	1	STIM_BRAND
1223.511	5	L71	NaN	1	RETENTION_BRAND
